Ax,Ay,Az,Gx,Gy,Gz
0.4952476238119059,0.4898674005504129,0.7525644233174882,0.5005947294068402,0.4941852555941189,0.5005197342030452
0.5110055027513757,0.425068801601201,0.7600700525394046,0.5315136822645063,0.5445611036503479,0.4728813854927882
0.5855427713856928,0.2659494620965725,0.4513385038779085,1.0,0.4221706751312416,0.5376179430385266
0.4954977488744371,0.490367775831874,0.7523142356767576,0.5005650801402236,0.4941399096569405,0.5005493834696618
0.4339669834917458,0.3007255441581187,0.7850888166124594,0.4403003296300818,0.8694002127770899,0.8071664021486997
0.4954977488744371,0.4901175881911435,0.7528146109582188,0.500687165355704,0.4941399096569405,0.5005493834696618
0.5645322661330665,0.3742807105328998,0.7035276457343008,0.2961333868182849,0.6871269860648447,0.518145351169402
0.5672836418209104,0.4275706780085065,0.7165374030522893,1.0,0.582988297260059,0.2644208800599961
0.4954977488744371,0.4898674005504129,0.7525644233174882,0.5007028620262658,0.4942462982018591,0.5005040375324834
0.4952476238119059,0.4901175881911435,0.7525644233174882,0.5006557720145804,0.4942009522646807,0.5004726441913598
0.4952476238119059,0.4901175881911435,0.7528146109582188,0.5006557720145804,0.4942462982018591,0.5004883408619216
0.4944972486243121,0.4883662747060296,0.7528146109582188,0.500610426077402,0.4941852555941189,0.5004569475207981
0.1998499249624812,0.4831123342506881,0.52964723542657,0.5898390219230165,0.0810035404712489,0.587123497915831
0.1588294147073536,0.4258193645233926,0.7990993244933702,0.4664265657428885,1.0,0.6735737830720129
0.4952476238119059,0.4901175881911435,0.7528146109582188,0.5005947294068402,0.4941852555941189,0.5004726441913598
0.6095547773886942,0.4253189892419315,0.7523142356767576,1.0,0.4084046950485724,0.5431885170134468
0.5872936468234117,0.2026519889917439,0.5251438578934201,1.0,0.2882118004081134,0.5653609362191953
0.5577788894447223,0.1551163372529397,0.5126344758568928,0.3881245966827703,0.6253047770200744,0.5948602124282749
0.4954977488744371,0.4898674005504129,0.7525644233174882,0.500610426077402,0.494171302998064,0.5004726441913598
0.4947473736868433,0.4883662747060296,0.7528146109582188,0.5005807768107854,0.4941556063275023,0.5004726441913598
0.4942471235617808,0.4888666499874907,0.7523142356767576,0.5007028620262658,0.4942009522646807,0.5004569475207981
0.7201100550275137,0.3955466599949964,0.5664248186139605,0.6006435634930324,0.9647016760556012,0.559792106318782
0.5307653826913457,0.3872904678508883,0.6745058794095573,1.0,0.1495700856340583,0.4462371592514432
0.4922461230615307,0.3755316487365525,0.6672504378283715,0.544407625093744,0.5780438460331025,0.7310305736261054
0.5855427713856928,0.2932199149362022,0.4756067050287716,1.0,0.2449343355948166,0.5982175558539861
0.4949974987493746,0.4898674005504129,0.7530647985989494,0.5006418194185256,0.4941556063275023,0.5005040375324834
0.4844922461230614,0.3875406554916188,0.3377533149862397,1.0,0.3682857491672044,0.7110853375656208
0.5080040020010005,0.4736052039029273,1.0000000000000002,0.5403195144496573,0.8985471859357832,0.4516996006069379
0.2248624312156077,0.417312984738554,0.4911183387540656,0.5249350332246193,0.8114550813610757,0.4708530268413066
0.4942471235617808,0.4896172129096824,0.7523142356767576,0.5007168146223206,0.4941242129863787,0.5005040375324834
0.5082541270635317,0.5556667500625471,0.581686264698524,0.3113469487416502,0.0,0.4114114794984042
0.5430215107553776,0.3277458093570179,0.5396547410557919,0.0,0.5945096534523955,0.2312747440570661
0.7526263131565782,0.3345008756567427,0.4953715286464849,0.3715663533146136,0.0,0.2269860648446901
0.5332666333166582,0.4660995746810109,0.9141856392294222,1.0,0.5730836981355844,0.5739836405811256
0.4949974987493746,0.4898674005504129,0.7530647985989494,0.5007482079634442,0.4941852555941189,0.5005336867991
0.5765382691345672,0.2874655991993996,0.3352514385789342,0.9514397335054152,0.4824807715785618,0.4167692763834871
0.4952476238119059,0.4901175881911435,0.7530647985989494,0.5006418194185256,0.4941852555941189,0.5005650801402236
0.4957478739369684,0.4906179634726046,0.7528146109582188,0.5007168146223206,0.4941852555941189,0.5005040375324834
0.5625312656328163,0.4425819364523394,0.8801601200900677,0.9658771822732268,0.5202347524286237,0.5947695205539181
0.4944972486243121,0.4883662747060296,0.7528146109582188,0.5007482079634442,0.4942323456058042,0.5004883408619216
0.2258629314657328,0.4155616712534402,0.4125594195646735,0.4853340774717896,0.3757939899192494,0.6747196400230218
0.0410205102551275,0.5013760320240181,0.7545659244433327,0.6118300573800513,1.0,0.6021399794199208
0.4954977488744371,0.4898674005504129,0.7530647985989494,0.5006557720145804,0.4941556063275023,0.5004883408619216
0.0577788894447223,0.4668501376032025,0.826870152614461,0.6567277674102238,0.9871200097668172,0.6889565202225438
0.4144572286143071,0.5814360770577935,0.6795096322241683,0.4538203952072832,1.0,0.5201597572248287
0.4949974987493746,0.4898674005504129,0.7530647985989494,0.5007168146223206,0.4941556063275023,0.5004116015836196
0.6918459229614806,0.375281461095822,0.7728296222166626,0.7617053560528106,0.8211294626506445,0.4438564975495753
0.4519759879939969,0.4218163622717039,0.662997247935952,0.1950311317299475,0.0,0.0
0.4944972486243121,0.4888666499874907,0.7533149862396799,0.5009609850532815,0.4940492177825836,0.5005493834696618
0.3649324662331165,0.3695271453590193,0.9074305729296974,0.3612658492770811,0.999618047682997,0.9051397875717252
0.4949974987493746,0.4896172129096824,0.7525644233174882,0.5006418194185256,0.4940945637197621,0.5004726441913598
0.4942471235617808,0.4886164623467602,0.7525644233174882,0.5005807768107854,0.4942166489352425,0.5005650801402236
0.584792396198099,0.3667750813109833,0.7695771828871656,0.2308317491323229,0.6409020353349495,0.3084169035701205
0.2216108054027013,0.4103077307980987,0.5486614961220917,0.4872577916528594,0.2326176814273506,0.5276209079651882
0.4949974987493746,0.4898674005504129,0.7530647985989494,0.500610426077402,0.4941242129863787,0.5004116015836196
0.5965482741370685,0.4650988241180886,0.591693770327746,1.0,0.0,0.5487573469138601
0.4874937468734366,0.4535901926444834,0.7265449086815112,0.0,0.4481748260285679,0.6729790536651725
0.4949974987493746,0.4898674005504129,0.7530647985989494,0.5006261227479638,0.494171302998064,0.5005807768107854
0.5267633816908454,0.4375781836377284,0.6865148861646235,0.5279889076861364,0.4457784676561382,0.4805884507386155
0.488744372186093,0.430572929697273,0.5854390793094822,0.0,0.6548040532291539,0.6263581980222195
0.577288644322161,0.2621966474856143,0.3822867150362773,0.4954375010900466,0.5057990477353193,0.5380609379632698
0.4949974987493746,0.4898674005504129,0.7525644233174882,0.5006418194185256,0.494171302998064,0.5005040375324834
0.5705352676338168,0.3662747060295223,0.741055791843883,0.5256535919214469,0.4760556010952788,0.5389451837382493
0.4944972486243121,0.4878658994245685,0.7530647985989494,0.500610426077402,0.4941852555941189,0.5005197342030452
0.4952476238119059,0.4898674005504129,0.7525644233174882,0.500610426077402,0.4941852555941189,0.5005197342030452
0.4952476238119059,0.4898674005504129,0.7530647985989494,0.5006418194185256,0.4942166489352425,0.5004883408619216
0.8399199599799898,0.3112334250688017,0.7260445334000502,0.5632715349599735,0.0959432826970368,0.3103859636883688
0.5102551275637819,0.4080560420315238,0.8001000750562923,1.0,0.74949683450477,0.3721610827214539
0.4954977488744371,0.4898674005504129,0.7528146109582188,0.500610426077402,0.4942009522646807,0.5003505589758794
0.2651325662831415,0.4428321240930699,0.6332249186890169,0.3113172994750336,1.0,0.7459563632558383
0.5435217608804401,0.3975481611208407,0.816862646985239,0.2273226712245147,0.4946282505188621,0.5015557144601217
0.6175587793896947,0.4235676757568177,0.6512384288216163,0.6282208695955491,1.0,0.633896088040881
0.5327663831915957,0.1943957968476358,0.5869402051538655,0.0,0.4157158553813419,0.4107853567504403
0.5582791395697848,0.2469352014010509,0.3742807105328997,1.0,0.5199609327310463,0.5770514676386975
0.4947473736868433,0.4893670252689518,0.7523142356767576,0.5006714686851422,0.4942323456058042,0.5005197342030452
0.5482741370685342,0.583937953465099,0.5586690017513136,0.4301672567452081,1.0,0.7540750300852852
0.5875437718859429,0.5306479859894923,0.741055791843883,0.0,0.68978146746429,0.4913319497008912
0.5405202601300649,0.399049286965224,0.691268451338504,0.0,0.3357186459005529,0.5253780281493625
0.3784392196098048,0.5626720040030024,0.4553415061295973,0.5645830789891344,1.0,1.0
0.4954977488744371,0.4898674005504129,0.7528146109582188,0.5005947294068402,0.4941556063275023,0.5005040375324834
0.5550275137568784,0.4280710532899676,0.7495621716287216,0.0047770200742975,0.6801210387707762,0.5257146345291871
0.2796398199099549,0.563422566925194,0.7368026019514637,0.3688194359663045,1.0,0.4512879990233183
0.7286143071535767,0.2476857643232425,0.9194395796847638,0.0,0.3279365854509304,0.1939480614611856
0.5597798899449724,0.3825369026770079,0.659744808606455,0.0,0.3995849102673666,0.4732179918726128
0.4954977488744371,0.4901175881911435,0.7530647985989494,0.5005947294068402,0.4942009522646807,0.5005336867991
0.4839919959979989,0.4791093319989993,0.4550913184888667,0.4568585729982385,0.0,0.3595706088564103
0.4952476238119059,0.4898674005504129,0.7528146109582188,0.5005197342030452,0.4942166489352425,0.5004726441913598
0.349424712356178,0.5689266950212661,0.7092819614711035,0.6075570748382371,1.0,0.6003087011877147
0.4939969984992495,0.4883662747060296,0.7525644233174882,0.5005493834696618,0.4942009522646807,0.5004726441913598
0.4957478739369684,0.4898674005504129,0.7525644233174882,0.5007028620262658,0.4941852555941189,0.5005493834696618
0.4952476238119059,0.4896172129096824,0.7530647985989494,0.5005947294068402,0.4941852555941189,0.5005197342030452
0.5175087543771886,0.3350012509382037,0.6084563422566927,0.0,0.5032963008179709,0.5760887385109092
0.7633816908454226,0.3204903677758319,0.5131348511383539,0.4139752690234927,0.9471527983675464,0.8374278389172785
0.4212106053026513,0.3920440330247687,0.4345759319489618,0.0,0.620574846957462,0.0468493294033521
0.4939969984992495,0.4888666499874907,0.7540655491618715,0.5006418194185256,0.4941399096569405,0.5004883408619216
0.5692846423211605,0.2419314485864399,0.6044533400050038,0.0,0.6148978844376232,0.5616844271587282
0.6570785392696348,0.302226670002502,0.6407305479109333,0.4479306555976071,0.0,0.5323979280394858
0.5425212606303151,0.394045534150613,0.7162872154115588,0.5464848178314178,0.6117533181017493,0.5203568376441041
0.4952476238119059,0.4898674005504129,0.7528146109582188,0.5005493834696618,0.4942009522646807,0.5005040375324834
0.4954977488744371,0.4898674005504129,0.7525644233174882,0.5007482079634442,0.4941399096569405,0.5004883408619216
0.5205102551275638,0.1396047035276458,0.3485113835376533,0.0864206358895652,0.6199033782723198,0.531696810087727
0.5057528764382191,0.4836127095321492,0.7322992244183139,0.3476986936881944,0.4261680939009714,0.4371871566353315
0.4952476238119059,0.4898674005504129,0.7530647985989494,0.5005807768107854,0.494171302998064,0.5004726441913598
0.4469734867433716,0.4638478859144359,0.7995996997748313,0.4424071716343722,0.0,1.5696670561837767e-05
0.4954977488744371,0.4901175881911435,0.7528146109582188,0.5005807768107854,0.494171302998064,0.5004429949247432
0.5450225112556277,0.4128096072054041,0.8836627470602954,0.0,0.326593648080646,0.3482934230950346
0.5075037518759379,0.3590192644483364,0.6825118839129348,0.0,0.4856235938399288,0.4250693269616478
0.6908454227113556,0.4015511633725295,0.4648486364773581,0.4603833475766085,1.0,0.9627797059490382
0.4052026013006503,0.5281461095821868,0.5681761320990744,0.4584910267366622,1.0,0.5907860543802431
0.4949974987493746,0.4896172129096824,0.7528146109582188,0.500610426077402,0.4942462982018591,0.5005197342030452
0.5605302651325662,0.2264198148611459,0.4863647735801852,0.9606885606153096,0.243300137781886,0.5756474876606729
0.6098049024512255,0.1436077057793345,0.3882912184138104,0.0,0.5124526919790013,0.5097964665050491
0.4954977488744371,0.4901175881911435,0.7525644233174882,0.5007325112928824,0.4941399096569405,0.5004569475207981
0.2841420710355177,0.5116337252939707,0.7225419064298225,0.5870781519786525,0.0,0.3205190365732424
0.4937468734367183,0.4886164623467602,0.7528146109582188,0.5005947294068402,0.4941556063275023,0.5004116015836196
0.4954977488744371,0.4901175881911435,0.7530647985989494,0.5006557720145804,0.4942009522646807,0.5004726441913598
0.4419709854927463,0.4906179634726046,0.662496872654491,1.0,0.859052618727872,0.4671904703768945
0.5577788894447223,0.2494370778083564,0.4348261195896923,0.9999389573922596,0.3321328287144427,0.2394248042276366
0.6000500250125061,0.4288216162121592,0.5466599949962473,1.0,0.5175035317508764,0.3368174128398765
0.371935967983992,0.4568426319739806,0.5223917938453841,0.5782880164640634,0.0,0.2997349006749569
0.604552276138069,0.4793595196397299,0.7843382536902679,0.9945061653033818,0.5539773619129009,0.5164658074192929
0.6078039019509754,0.4345759319489618,0.555666750062547,0.0,0.8837905715332159,0.2345413956084204
0.4197098549274637,0.4240680510382788,0.5949462096572431,0.6861189109998779,1.0,0.7107801245269199
0.4952476238119059,0.4898674005504129,0.7525644233174882,0.5006557720145804,0.4942323456058042,0.5005197342030452
0.2116058029014507,0.3350012509382037,0.558418814110583,0.403003296300818,0.9958037567364876,0.522280551825174
0.5632816408204101,0.3615211408556418,0.8593945459094322,0.5958822400892966,0.4666393428327258,0.4528594101540018
0.5542771385692846,0.4473355016262198,0.4195646735051289,0.0,0.8620140572405253,0.2410886513071838
0.4734867433716858,0.5481611208406306,0.7202902176632475,0.9977257268430506,0.6253361703611978,0.4692188290283761
0.3519259629814907,0.5566675006254692,0.6272204153114838,0.990050054938347,1.0,0.4489683799291906
0.1175587793896948,0.542406805103828,0.5771828871653741,0.5988436786019499,1.0,0.7394405008981983
0.568784392196098,0.341506129597198,0.7638228671503628,0.0,0.5110330153304149,0.5320473690636064
0.2068534267133566,0.4053039779834877,0.5323992994746061,0.5960357186459005,0.1881333170553046,0.4223381062839004
0.4947473736868433,0.4893670252689518,0.7525644233174882,0.5005947294068402,0.4942462982018591,0.5005040375324834
0.4939969984992495,0.4883662747060296,0.7525644233174882,0.5006261227479638,0.4942462982018591,0.5005336867991
0.4939969984992495,0.4883662747060296,0.7528146109582188,0.5006261227479638,0.4942776915429827,0.5003662556464412
0.24112056028014,0.5511633725293972,0.6572429321991495,0.2212341071210561,0.0,0.1351640302073704
0.4949974987493746,0.4898674005504129,0.7528146109582188,0.5005493834696618,0.4941242129863787,0.5005197342030452
0.5502751375687843,0.4240680510382788,0.8233675256442332,0.5900988890245391,0.0,0.4886007290231439
0.3786893446723361,0.2967225419064299,0.4438328746559921,6.104260774025816e-05,0.6955194725918692,0.830041683380714
0.5597798899449724,0.6067050287715788,0.4418313735301477,0.3683014458377662,1.0,0.9999703507333833
0.4949974987493746,0.4898674005504129,0.7528146109582188,0.500687165355704,0.4941556063275023,0.5004883408619216
0.0080040020010004,0.5566675006254692,0.5331498623967977,0.6724296701955108,0.0005493834696618,0.4871967490451192
0.4944972486243121,0.4881160870652991,0.7528146109582188,0.5007028620262658,0.4942166489352425,0.5005040375324834
0.4959979989994997,0.4886164623467602,0.7525644233174882,0.5006418194185256,0.4942009522646807,0.5005493834696618
0.5515257628814406,0.3890417813360021,0.6634976232174132,0.0,0.4110905697891414,0.5391283115614699
0.4954977488744371,0.4901175881911435,0.7528146109582188,0.5006418194185256,0.4942323456058042,0.5004569475207981
0.5385192596298148,0.3517638228671504,0.6067050287715787,0.0,0.2790100633099046,0.506119957444582
0.6988494247123561,0.1230923192394297,0.326494871153365,0.6961612920103947,0.3135915726319828,0.4833353680869247
0.8586793396698348,0.3595196397297974,0.7858393795346511,0.5542668782810402,0.3315834452447809,0.5088511781223294
0.3734367183591796,0.4005504128096073,0.6915186389792345,0.446252855922005,0.5785321868950242,0.5479951863543611
0.7358679339669834,0.3525143857893421,0.4415811858894171,0.4515775153914575,0.99647522542163,0.7132671747737063
0.344672336168084,0.5251438578934202,0.6112084063047286,0.435615745504648,1.0,0.3791513333449605
0.4954977488744371,0.3565173880410309,0.7010257693269953,0.0,0.6288766416101296,0.6132950799658161
0.8566783391695847,0.336502376782587,1.0000000000000002,0.7674730104470062,0.3722221253291941,0.3797914086889792
0.5975487743871936,0.359769827370528,0.4140605454090568,0.0,0.4329455674346408,0.2745853462859933
0.3404202101050525,0.4073054791093321,0.4873655241431074,0.4720267889844254,0.9778258367197448,0.5171826220416136
0.1838419209604802,0.4921190893169879,0.6710032524393297,0.6482271482637738,0.0,0.3501700472644191
0.4942471235617808,0.4888666499874907,0.7530647985989494,0.5006261227479638,0.4942323456058042,0.5004569475207981
0.5220110055027514,0.367525644233175,0.7888416312234177,1.0,0.4827563353506461,0.5579137380748905
0.4089544772386193,0.6014510883162374,0.6542406805103829,0.0721366656783578,0.0,0.0998657062629715
0.4952476238119059,0.490367775831874,0.7528146109582188,0.5006557720145804,0.4942323456058042,0.5005040375324834
0.5717858929464732,0.599449587190393,0.6892669502126596,0.4571934353035561,1.0,0.591869124649005
0.5477738869434716,0.4120590442832125,0.6619964973730299,0.8375045781955806,0.4203237002284737,0.5268134014685107
0.5485242621310654,0.5281461095821868,0.6487365524143108,0.5788060065926016,0.4914383382458098,0.4439332368278773
0.4977488744372185,0.4923692769577184,0.7535651738804104,0.5006714686851422,0.4940178244414601,0.5024120550429915
0.6455727863931965,0.4515886915186391,0.5018764073054792,1.0,0.502532396183965,0.5676195127055828
0.5427713856928463,0.5076307230422819,0.6927695771828872,1.0,0.0,0.750794425937876
0.5175087543771886,0.4926194645984489,0.8826619964973732,0.0,0.7311526588415858,0.5264314491515077
0.5140070035017508,0.4338253690267702,0.8056042031523645,0.0182674363848823,0.6664021486997924,0.4679683276069554
0.4954977488744371,0.4898674005504129,0.7528146109582188,0.5005197342030452,0.4941399096569405,0.5004726441913598
0.8274137068534266,0.1180885664248187,0.4906179634726045,0.8740847969025236,0.7292917313427629,0.5013586340408462
0.737368684342171,0.3767825869402053,0.7042782086564925,0.4794129445209899,0.3744353558784031,0.5506653644243682
0.165832916458229,0.3985489116837629,0.5176382286715037,0.4756736487782758,0.0386242740289865,0.6112963705809512
0.4942471235617808,0.4761070803102328,0.8216162121591195,0.535373319148194,0.0,0.5259134590229695
0.5007503751875937,0.4973730297723294,0.7535651738804104,0.5006261227479638,0.49449046863282,0.5128346442960043
0.5817908954477238,0.4951213410057544,0.6387290467850889,0.4878821703263163,0.5940823551982141,0.4663655231351483
0.5292646323161581,0.2989742306730049,0.5831873905429072,1.0,0.581765701030748,0.4724401346425519
0.4952476238119059,0.4898674005504129,0.7530647985989494,0.500687165355704,0.4942462982018591,0.5004569475207981
0.2078539269634817,0.3432574430823119,0.5081310983237429,0.5882222648551546,0.5301236548825365,0.3871932608961055
0.3196598299149574,0.4070552914686016,0.8181135851888919,0.3976472434902419,0.3208085529413816,0.5604478783333624
0.5870435217608804,0.1761320990743058,0.7237928446334753,0.976957287615327,0.6230322479376319,0.6391161030399218
0.0690345172586293,0.4053039779834877,0.5283962972229173,0.7718384289376843,0.9973751678671712,0.6310881280848317
0.4952476238119059,0.4901175881911435,0.7528146109582188,0.5005807768107854,0.4941852555941189,0.5005650801402236
0.4954977488744371,0.4898674005504129,0.7530647985989494,0.5006557720145804,0.4941556063275023,0.5005197342030452
0.4954977488744371,0.4901175881911435,0.7528146109582188,0.5005947294068402,0.4942009522646807,0.5004272982541814
0.22136068034017,0.4385789342006506,0.581185889417063,0.5815686206114725,0.5604618309294173,0.4102830632924638
0.5907953976988494,0.2717037778333751,0.550662997247936,0.0,0.5020911453337287,0.4852730348640494
0.4952476238119059,0.4901175881911435,0.7528146109582188,0.5005807768107854,0.4941399096569405,0.5005650801402236
0.3819409704852425,0.593945459094321,0.651988991743808,0.5485899157612013,1.0,0.1869281615710623
0.5787893946973486,0.4645984488366276,0.652489367025269,0.6054816261750702,0.0,0.5221584666096936
0.4957478739369684,0.4901175881911435,0.7520640480360272,0.5005947294068402,0.4941852555941189,0.5005197342030452
0.5157578789394697,0.5043782837127847,0.7535651738804104,0.5003209097092628,0.4938346966182395,0.5111864938870189
0.4927463731865932,0.4503377533149864,0.7353014761070804,0.1365366168442716,0.6824860038020825,0.5275755620280098
0.4952476238119059,0.4901175881911435,0.7523142356767576,0.5006714686851422,0.4942166489352425,0.5004726441913598
0.4939969984992495,0.4886164623467602,0.7528146109582188,0.5006557720145804,0.4943073408095993,0.5005197342030452
0.5022511255627813,0.5946960220165125,0.84013009757318,0.2876641610129585,1.0,0.7289708216335001
0.6378189094547273,0.4668501376032025,0.6642481861396048,0.3441739191098243,0.0,0.3388632122364267
0.4952476238119059,0.4898674005504129,0.7525644233174882,0.5006557720145804,0.4941852555941189,0.5003976489875648
0.4954977488744371,0.4908681511133351,0.7528146109582188,0.5006261227479638,0.4941556063275023,0.5004429949247432
0.5470235117558779,0.4008006004503379,0.576182136602452,0.4853654708129131,1.0,0.3551005458953206
0.6060530265132565,0.1050788091068302,0.4625969477107832,0.6388876292795228,0.8663777316566963,0.2863665695798524
0.7508754377188593,0.3385038779084314,0.6772579434575933,0.1362627971466941,0.0,0.3517885484067879
0.5287643821910955,0.4423317488116088,0.592194145609207,1.0,0.2309084884106249,0.726834330362593
0.5775387693846923,0.5506629972479361,0.4380785589191894,1.0,0.0371906447843452,0.8442192650470028
0.4952476238119059,0.4901175881911435,0.7530647985989494,0.500687165355704,0.494171302998064,0.5004569475207981
0.6158079039519759,0.3044783587690769,0.6860145108831625,0.5959746760381603,0.4234979158309643,0.5925248966635854
0.4954977488744371,0.4896172129096824,0.7528146109582188,0.5005807768107854,0.494171302998064,0.5005040375324834
0.5630315157578789,0.3975481611208407,0.709532149111834,0.5086837469696706,0.4695850846748173,0.587580445436629
0.6763381690845421,0.3377533149862398,0.5381536152114087,0.445335472731395,0.9875769572876154,0.5216090831400317
0.4952476238119059,0.4896172129096824,0.7530647985989494,0.500687165355704,0.4942166489352425,0.5004883408619216
0.4957478739369684,0.4898674005504129,0.7528146109582188,0.5007168146223206,0.4942323456058042,0.5005650801402236
0.4877438719359679,0.4505879409557169,0.6875156367275458,0.2817883739993372,0.5490329106859445,0.4347001063885449
0.6125562781390694,0.4550913184888668,0.7493119839879911,1.0,0.5765927760433925,0.2600415089732633
0.4867433716858428,0.5033775331498626,0.7553164873655243,0.5013882833074629,0.4943230374801611,0.5396009557528297
0.4919959979989994,0.4873655241431074,0.7525644233174882,0.5005040375324834,0.4941399096569405,0.5036625564644122
0.4717358679339669,0.3575181386039531,0.6877658243682763,0.5829412072483736,0.8161082721453861,0.5844533198458238
0.4937468734367183,0.487615711783838,0.751563672754566,0.5004272982541814,0.495254373266826,0.4863874984739348
0.4952476238119059,0.490367775831874,0.7525644233174882,0.5005947294068402,0.4940945637197621,0.5004429949247432
0.9117058529264632,0.4736052039029273,0.7458093570177634,0.583673718541256,0.0,0.3149798559394458
0.5215107553776888,0.4440830622967227,0.8931698774080562,0.0,0.6119364459249699,0.6258855538308596
0.0935467733866933,0.3580185138854141,0.5591693770327747,0.5011598095470639,0.749878786821773,0.6494323037480161
0.4944972486243121,0.4891168376282213,0.7528146109582188,0.5006557720145804,0.4942166489352425,0.5004726441913598
0.8434217108554276,0.4711033274956218,0.4213159869902427,0.4588415857125416,1.0,0.9677241571759944
0.1455727863931966,0.3980485364023018,0.5729296972729548,0.4643197237385981,1.0,0.7328618518583114
0.6560780390195097,0.5321491118338756,0.0,0.7940422414845563,0.1812355023806617,0.3806913511345204
0.1680840420210105,0.3530147610708032,0.5749311983987992,0.6397875717250641,0.7274447564399951,0.4096255472033765
0.4954977488744371,0.4896172129096824,0.7528146109582188,0.5006714686851422,0.4941399096569405,0.5004883408619216
0.4997498749374687,0.4971228421315988,0.7257943457593197,0.6483335368086924,0.0,0.453836091877845
0.0950475237618809,0.3370027520640481,0.738303727795847,0.6513699705251408,0.64209149414863,0.5625233269965293
0.4952476238119059,0.4898674005504129,0.7525644233174882,0.500687165355704,0.4942009522646807,0.5005336867991
0.5447723861930965,0.1966474856142107,0.3340005003752815,0.3576329420792856,0.6401991733086837,0.4046810959764201
0.5020010005002501,0.5734300725544159,0.4676007005253941,1.0,0.8266389940178245,0.7883495822941555
0.4942471235617808,0.4891168376282213,0.7530647985989494,0.5006714686851422,0.4942323456058042,0.5004569475207981
0.6478239119559779,0.1816362271703779,0.3812859644733551,0.1680956450459563,0.3470725709402306,0.5250885117812233
0.7576288144072035,0.3420065048786591,0.6695021265949463,0.3595863055269721,0.0,0.291754015731552
0.4952476238119059,0.4898674005504129,0.7525644233174882,0.5006261227479638,0.494171302998064,0.5005493834696618
0.4952476238119059,0.4901175881911435,0.7530647985989494,0.5006557720145804,0.4942323456058042,0.5005197342030452
0.4949974987493746,0.4898674005504129,0.7528146109582188,0.5005807768107854,0.4942009522646807,0.5005040375324834
0.6293146573286643,0.7865899424568428,0.717287965974481,0.2727226747126637,1.0,0.6088093203341647
0.8094047023511755,0.1831373530147612,0.3822867150362773,0.0099656417322148,0.4113347402201022,0.5032806041474092
0.6935967983991995,0.3209907430572931,0.8573930447835878,0.6225421630012034,0.1765962641924063,0.5870624553080908
0.5690345172586293,0.1526144608456343,0.3445083812859645,0.7896157803861381,0.4574986483422572,0.4165094092819645
0.4952476238119059,0.4898674005504129,0.7528146109582188,0.5005650801402236,0.4941852555941189,0.5005493834696618
0.1493246623311656,0.3732799599699776,0.8754065549161872,0.3840957845719169,0.6532483387690322,0.5803774177232851
0.7831415707853926,0.3324993745308983,0.6927695771828872,0.4018731360203708,0.715586793867834,0.6389783211538798
0.2133566783391696,0.5349011758819116,0.4370778083562673,0.6425344890733732,1.0,0.9142194394544536
0.4952476238119059,0.4896172129096824,0.7525644233174882,0.5006418194185256,0.494171302998064,0.5005040375324834
0.2576288144072036,0.479859894921191,0.5606705028771579,0.41318171512287,0.0,0.1953973873763887
0.3689344672336168,0.5336502376782588,0.6482361771328498,0.2385388143781502,0.0,0.0
0.4952476238119059,0.4898674005504129,0.7525644233174882,0.5007028620262658,0.4941852555941189,0.5005197342030452
0.6143071535767883,0.3745308981736303,0.6787590693019766,0.6325078047334182,0.0,0.6277168320630657
0.3041520760380189,0.4515886915186391,0.5659244433324995,0.5910145281406421,0.0,0.4568725255942933
0.5055027513756878,0.338754065549162,0.6692519389542158,0.0,0.6197045537785374,0.4519141217712821
0.4809904952476238,0.4518388791593696,0.7633224918689018,0.3783420827737761,0.4116713465999267,0.4891187191516821
0.6250625312656327,0.291718789091819,0.4408306229672255,1.0,0.2391038945183738,0.4471527983675463
0.4924962481240619,0.4881160870652991,0.7540655491618715,0.5005947294068402,0.4941556063275023,0.5004726441913598
0.4942471235617808,0.4886164623467602,0.7525644233174882,0.5006714686851422,0.4942166489352425,0.5004272982541814
0.534017008504252,0.234676007005254,0.2729547160370278,0.2944695397387377,0.6145612780577986,0.4562934928580149
0.6368184092046022,0.27395546659995,0.7998498874155617,0.2116504177058444,0.4155170308875595,0.8451662975042293
0.8941970985492745,0.3332499374530899,0.5539154365774331,0.6850201440605542,0.0,0.1127456964961543
0.4932466233116557,0.4148111083312485,0.3975481611208407,0.5135218096517083,1.0,0.7933097301916738
0.3041520760380189,0.4093069802351765,0.5183887915936953,0.702799239583515,0.0,0.2483823708948846
0.4952476238119059,0.4898674005504129,0.7533149862396799,0.5006418194185256,0.4941852555941189,0.5004883408619216
0.0865432716358179,0.3815361521140857,0.7045283962972231,0.4736749393934109,0.0051572283167937,0.541570015871078
0.5877938969484742,0.2539404553415062,0.4768576432324244,0.9666550395032876,0.692467342204859,0.3505676962519839
0.5562781390695347,0.4518388791593696,0.7555666750062549,0.0,0.375518426147165,0.5261419327833685
0.1843421710855427,1.0000000000000002,1.0000000000000002,1.0,0.943504194499189,0.3256169663568027
0.4947473736868433,0.4893670252689518,0.7525644233174882,0.5005650801402236,0.494108516315817,0.5005197342030452
0.4952476238119059,0.4898674005504129,0.7528146109582188,0.5006557720145804,0.4942009522646807,0.5005197342030452
0.4949974987493746,0.4898674005504129,0.7528146109582188,0.5005807768107854,0.4941852555941189,0.5005493834696618
0.4952476238119059,0.4861145859394547,0.7520640480360272,0.5006261227479638,0.4942776915429827,0.4979245513368331
0.5280140070035017,0.4523392544408307,0.8043532649487117,1.0,0.7229729494043986,0.5806058914836841
0.5325162581290644,0.3342506880160121,0.5053790342757069,1.0,0.403308509339519,0.355299370389103
0.0145072536268134,0.4330748061045785,0.8003502626970229,0.6642046148211451,0.9999546540628216,0.4690357012051555
0.5797898949474737,0.2494370778083564,0.4836127095321492,0.9800704606100772,0.4802675410293527,0.6562080332071786
0.0532766383191595,0.4368276207155367,0.7320490367775834,0.5442262413450303,0.0,0.2561190854073286
0.4942471235617808,0.4886164623467602,0.7528146109582188,0.5007028620262658,0.4942462982018591,0.5004429949247432
0.4952476238119059,0.4926194645984489,0.7528146109582188,0.5005336867991,0.4944451226956415,0.4990529675427734
0.5155077538769384,0.4143107330497874,0.7495621716287216,0.5633011842265901,0.3896506618762753,0.4735999441896157
0.465232616308154,0.5078809106830124,0.3277458093570178,0.486525280359977,1.0,1.0
0.465232616308154,0.5854390793094822,0.5043782837127847,0.5425920435320997,0.0,0.1438163838359175
0.3161580790395197,0.5434075556667501,0.7100325243932951,0.0602647505101417,0.0,0.3527198841934528
0.4949974987493746,0.4898674005504129,0.7528146109582188,0.5005947294068402,0.4942009522646807,0.5004116015836196
0.6028014007003502,0.3362521891418565,0.6717538153615212,1.0,0.3548563754643598,0.5527704623541517
0.5757878939469734,0.1868901676257193,0.4013009757317989,0.3848736418019778,0.564689467534053,0.5160542058356733
0.4944972486243121,0.4878658994245685,0.7528146109582188,0.5007028620262658,0.494171302998064,0.5004883408619216
0.6195597798899449,0.224168126094571,0.4665999499624719,1.0,0.3117602943997767,0.4677241571759946
0.549024512256128,0.5051288466349764,0.7603202401801352,0.6817238432425833,0.5495212515478661,0.5461482114515932
0.2026013006503251,0.5894420815611711,0.3845384038028522,0.6049008493642848,0.0,0.3417165181296545
0.7133566783391695,0.4175631723792846,0.490367775831874,0.4480980867502659,1.0,0.974056891710414
0.6183091545772885,0.4165624218163624,0.811358518889167,0.799947677764794,0.431632279330973,0.3753196016533826
0.4952476238119059,0.4901175881911435,0.7528146109582188,0.5006261227479638,0.4942166489352425,0.5005336867991
0.7071035517758879,0.3332499374530899,0.6427320490367777,0.4041020632401416,0.0,0.0658649737516787
0.5405202601300649,0.0197648236177133,0.2619464598448837,0.1298986692711512,0.3881245966827703,0.3782043008877339
0.5480240120060029,0.4143107330497874,0.735551663747811,0.0,0.6295620628913268,0.6670125747771944
0.4942471235617808,0.4898674005504129,0.7530647985989494,0.5008545965083628,0.4941556063275023,0.4967193958525908
0.001000500250125,0.3572679509632225,0.6262196647485615,0.6030242251949003,0.8575422502049288,0.6830214346756893
0.2816408204102051,0.414560920690518,0.5021265949462097,0.663060501944643,0.2612466644575056,0.381409909831348
0.5460230115057528,0.2852139104328247,0.3520140105078809,0.8086924673422049,0.4739801524321119,0.5148176570103075
0.1150575287643821,0.3915436577433075,0.558418814110583,0.4242461237944085,0.2344332629889949,0.629227200586009
0.3354177088544272,0.4453340005003754,0.6542406805103829,0.2819401084814343,1.0,0.7372726162861677
0.5450225112556277,0.4215661746309733,0.5666750062546911,0.5272406997226922,1.0,0.683584770741406
0.5750375187593796,0.4638478859144359,0.7370527895921942,0.8127509287196749,0.4842824005441512,0.5457366098679736
0.5250125062531265,0.4128096072054041,0.7535651738804104,0.0014039799780247,0.7591101731865986,0.4639552121666637
0.212856428214107,0.3867900925694272,0.500875656742557,0.4157455046479585,0.5156112109109301,0.6324014161884995
0.1608304152076037,0.3357518138603954,0.5173880410307732,0.5177320055112754,0.829966688176919,0.5727017458185814
0.6085542771385692,0.2819614711033276,0.6614961220915688,0.0,0.6835254722081727,0.4673265081884298
0.355927963981991,0.607705779334501,0.6642481861396048,0.4441303172471528,1.0,0.5701065629523694
0.4954977488744371,0.4896172129096824,0.7528146109582188,0.5006714686851422,0.4941852555941189,0.5004569475207981
0.3366683341670835,0.4073054791093321,0.673505128846635,0.4775973629593456,0.6979315276348605,0.5327031410781868
0.4954977488744371,0.4901175881911435,0.7528146109582188,0.5006418194185256,0.4940945637197621,0.5005947294068402
0.6885942971485742,0.4400800600450339,0.7445584188141107,0.6689502415543191,0.606732127596491,0.6423967071873311
0.4942471235617808,0.4886164623467602,0.7528146109582188,0.5006714686851422,0.494171302998064,0.5005040375324834
0.5807903951975988,0.3059794846134602,0.3477608206154616,1.0,0.2228369115928632,0.6813122416589636
0.5102551275637819,0.4295721791343508,0.7373029772329248,0.0061949526483772,0.5622181139578283,0.4608263425013517
0.5870435217608804,0.6019514635976984,0.8761571178383789,0.962413450302597,0.4277708983727785,0.5288731534611159
0.6775887943971985,0.443332499374531,0.8653990492869654,0.5132619425501858,0.3894204440413694,0.5354971484381813
0.4949974987493746,0.4893670252689518,0.7530647985989494,0.500610426077402,0.4942009522646807,0.5005040375324834
0.4954977488744371,0.4901175881911435,0.7528146109582188,0.5006714686851422,0.4942009522646807,0.5005197342030452
0.228864432216108,0.4150612959719791,0.545659244433325,0.467846242391475,0.5122695641557807,0.3988070530373057
0.00200100050025,0.4741055791843884,0.5644233174881161,0.284031253815163,0.3115614699059944,0.7873118579625722
0.2318659329664832,0.4253189892419315,0.5726795096322242,0.556495805500811,0.0092174337687706,0.5008545965083628
0.4954977488744371,0.4898674005504129,0.7530647985989494,0.5006261227479638,0.4941242129863787,0.5004569475207981
0.5727863931965982,0.4580935701776333,0.9274455841881412,0.6663097127509288,0.7029980640772974,0.55971536704048
0.1395697848924462,0.5176382286715038,0.5509131848886666,0.7851143240839249,1.0,0.648593403910215
0.0240120060030015,0.354766074555917,0.7047785839379536,0.4619547587072919,0.7006313549714844,0.6351029875996302
0.4952476238119059,0.4901175881911435,0.7530647985989494,0.5006261227479638,0.4941556063275023,0.5004883408619216
0.4624812406203101,0.5609206905178885,0.573930447835877,0.4657097511205679,0.0,0.0
0.4957478739369684,0.4901175881911435,0.7525644233174882,0.500687165355704,0.4941399096569405,0.5005650801402236
0.289144572286143,0.5544158118588943,0.6852639479609708,0.1940858433472278,0.0,0.3297975129497532
0.5412706353176587,0.4395796847635728,0.6424818613960471,0.0,0.1283412107365226,0.4933620524268797
0.125312656328164,0.4263197398048537,0.5651738804103078,0.6463191307532657,0.3118213370075169,0.615980954706385
0.5695347673836918,0.4488366274706031,0.6942707030272706,1.0,0.3680869246734221,0.4789246036590683
0.532016008004002,0.4233174881160871,0.7680760570427823,0.0,0.5484521338751591,0.5418298829726006
0.2263631815907953,0.3329997498123593,0.6244683512634477,0.3977379353645988,0.6004761323403736,0.4992064460993773
0.4942471235617808,0.4886164623467602,0.7530647985989494,0.5006714686851422,0.4942323456058042,0.5004429949247432
0.6305652826413206,0.4726044533400051,0.9759819864898676,0.0042572858712524,0.7131293928876641,0.5950590369220573
0.5867933966983491,0.4388291218413812,0.6594946209657244,0.0,0.4270994296876362,0.6132950799658161
0.4944972486243121,0.4886164623467602,0.7525644233174882,0.5006261227479638,0.4942619948724209,0.5005040375324834
0.4952476238119059,0.4901175881911435,0.7528146109582188,0.5006557720145804,0.4942009522646807,0.5005493834696618
0.4009504752376187,0.5276457343007257,0.5804353264948713,0.5824999563981373,0.0,0.2774839981163995
0.5092546273136568,0.3532649487115338,0.5441581185889418,1.0,0.2735929678915884,0.4718890070983832
0.5532766383191595,0.3094821115836879,0.6137102827120341,1.0,0.3992186546209254,0.3554511048712001
0.5615307653826913,0.4240680510382788,0.7205404053039781,0.0,0.2657795141008424,0.453454139560842
0.3501750875437718,0.513635226419815,0.7550662997247937,0.1279610024940265,1.0,0.787556028393533
0.5662831415707853,0.2929697272954717,0.6752564423317489,0.9372481992430716,0.5666131817151229,0.6055880147199888
0.157328664332166,0.388541406054541,0.4893670252689518,0.4653731447407433,0.2288033904808413,0.2770113539250396
0.4982491245622811,0.4978734050537904,0.7680760570427823,0.5001220852154804,0.4927062804122992,0.5362279156565568
0.3609304652326163,0.5038779084313236,0.6069552164123093,0.8135601792908593,0.0,0.254395939794548
0.6325662831415707,0.4035526644983739,0.4508381285964474,0.4799937213317753,1.0,0.8293859113661335
0.6190595297648823,0.2619464598448837,0.425068801601201,1.0,0.428107504752603,0.4460069414165373
0.4952476238119059,0.4901175881911435,0.7528146109582188,0.5006418194185256,0.4942166489352425,0.5004272982541814
0.534017008504252,0.5128846634976234,0.7102827120340256,0.5667352669306033,1.0,0.540882850515374
0.5625312656328163,0.2591943957968478,0.6267200400300226,0.0,0.4824197289708216,0.3645307567539285
0.5695347673836918,0.404053039779835,0.6792594445834377,0.6443047246978391,0.9036294190487816,0.5668870014127003
0.4832416208104051,0.3517638228671504,0.7202902176632475,0.0,0.4506618762753545,0.4648708512827668
0.3064032016008003,0.4215661746309733,0.714535901926445,0.6673020911453338,1.0,0.8512077715960026
0.4947473736868433,0.4893670252689518,0.7525644233174882,0.500610426077402,0.4941556063275023,0.5005493834696618
0.4669834917458729,0.4878658994245685,0.6354766074555918,0.0,0.4231020109179064,0.4360116504177058
0.4949974987493746,0.4898674005504129,0.7528146109582188,0.5006418194185256,0.4942323456058042,0.5005336867991
0.2826413206603301,0.581686264698524,0.7120340255191395,0.4280761114114795,0.0,0.3559237490625599
0.2593796898449224,0.4578433825369028,0.641981486114586,0.6835551214747894,0.0,0.2327711599839545
0.5550275137568784,0.42006504878659,0.6722541906429823,0.6558871234979158,0.0,0.3862776217800024
0.5607803901950975,0.472104078058544,0.5328996747560671,0.6148664910964996,0.5701536529640546,0.3334757660847272
0.546273136568284,0.430572929697273,0.7373029772329248,0.0733121718959833,0.4675096360116504,0.5135811081849416
0.576288144072036,0.4605954465849388,0.9409557167875908,0.6393759701414444,0.4990529675427734,0.6080907616373371
0.4952476238119059,0.490367775831874,0.7530647985989494,0.5005493834696618,0.4942619948724209,0.5005197342030452
0.4792396198099049,0.5011258443832876,0.8118588941706282,0.0,0.1377121230618972,0.5550900814482794
0.5787893946973486,0.3017262947210408,0.4968726544908682,0.0,0.5451558330571882,0.4776270122259622
0.5305152576288144,0.4148111083312485,0.8518889166875158,0.0,0.3983187121753841,0.7608647121405026
0.1193096548274136,0.4220665499124344,0.756567425569177,0.5486666550395033,1.0,0.7388597240874131
0.4949974987493746,0.4891168376282213,0.7525644233174882,0.5006261227479638,0.4941556063275023,0.5004883408619216
0.5700350175087543,0.3567675756817614,0.7380535401551165,0.0,0.4874862654132584,0.619734203045154
0.5620310155077538,0.391293470102577,0.691268451338504,1.0,0.4492578962973298,0.5711442872839527
0.9574787393696846,0.3029772329246936,0.6057042782086566,0.4479306555976071,0.2329228944660516,0.1706594345710448
0.4944972486243121,0.4893670252689518,0.7528146109582188,0.5006557720145804,0.4941556063275023,0.5005493834696618
0.263631815907954,0.4891168376282213,0.5681761320990744,0.3817447721366657,1.0,0.8590072727906937
0.5117558779389695,0.5038779084313236,0.67575681761321,0.2464743533843765,0.0,0.1636255820848667
0.4952476238119059,0.4898674005504129,0.7528146109582188,0.5005947294068402,0.4941242129863787,0.5004726441913598
0.5957978989494747,0.432824618463848,0.7723292469352014,0.6077245059908959,0.7299161100162199,0.4608716884385301
0.5985492746373186,0.2106579934951214,0.4023017262947211,1.0,0.4301986500863317,0.5251949003261419
0.4952476238119059,0.4901175881911435,0.7528146109582188,0.500610426077402,0.494171302998064,0.5004726441913598
0.4947473736868433,0.4886164623467602,0.7508131098323744,0.5002895163681392,0.4938189999476777,0.5109109301149345
0.4952476238119059,0.4901175881911435,0.7530647985989494,0.5006261227479638,0.4941556063275023,0.5005040375324834
0.5285142571285643,0.427820865649237,0.7373029772329248,0.0,0.6426722709594154,0.6964054624413555
0.9224612306153076,0.3187390542907181,0.7207905929447087,0.5798140816575684,0.2086732825226293,0.4032631634023405
0.5285142571285643,0.4073054791093321,0.7420565424068052,0.0,0.3605333379841987,0.4755986535744807
0.4954977488744371,0.4898674005504129,0.7530647985989494,0.5005807768107854,0.4942009522646807,0.5005197342030452
0.90120060030015,0.2631973980485365,0.7673254941205905,0.6251983884751556,0.0667038735894797,0.4526919790013429
0.3179089544772386,0.4028021015761822,0.4906179634726045,0.5077524111830057,0.5763486056124317,0.3861869299056455
0.4939969984992495,0.4891168376282213,0.7528146109582188,0.5006557720145804,0.4941399096569405,0.5005650801402236
0.2778889444722361,0.4230673004753566,0.571178383787841,0.4748957915482149,0.0072030277133439,0.4896070600136037
0.5510255127563781,0.396297222917188,0.7280460345258946,0.9971920400439508,0.409733679822802,0.62600763904634
0.4949974987493746,0.4898674005504129,0.7528146109582188,0.5006557720145804,0.494108516315817,0.5005197342030452
0.4942471235617808,0.4871153365023769,0.7528146109582188,0.5007325112928824,0.4942776915429827,0.4990233182761567
0.4954977488744371,0.4898674005504129,0.7530647985989494,0.5006261227479638,0.4941852555941189,0.5004726441913598
0.4942471235617808,0.4883662747060296,0.7530647985989494,0.5006261227479638,0.4942462982018591,0.5003348623053177
0.4947473736868433,0.4893670252689518,0.7530647985989494,0.5005650801402236,0.4942166489352425,0.500381952317003
0.4942471235617808,0.4888666499874907,0.7523142356767576,0.500610426077402,0.4944608193662033,0.4948567242792612
0.6363181590795397,0.2947210407805856,0.5228921691268452,1.0,0.2901041212480597,0.6296248495735738
0.5292646323161581,0.4320740555416563,0.2019014260695522,0.0,0.9999389573922596,0.5089436140711932
0.5755377688844422,0.2276707530647987,0.4275706780085064,1.0,0.5345658126515165,0.5139944538430682
0.3554277138569284,0.4733550162621968,0.6012009006755068,0.431327066292272,1.0,0.6557493416118737
0.4954977488744371,0.4898674005504129,0.7530647985989494,0.5005947294068402,0.4942009522646807,0.5005197342030452
0.750625312656328,0.333750312734551,0.6037027770828122,0.5838411496939149,0.7872054694176536,0.6693164972007604
0.4954977488744371,0.4898674005504129,0.7528146109582188,0.5006714686851422,0.4941852555941189,0.5005197342030452
0.5412706353176587,0.4493370027520642,0.8571428571428572,0.4413990965694054,0.6080750649667754,0.5389608804088111
0.5177588794397198,0.4400800600450339,0.7390542907180386,0.0,0.3073948759090988,0.587962397753632
0.5417708854427213,0.2954716037027772,0.5071303477608207,0.0,0.0004726441913598,0.1684165547552191
0.5485242621310654,0.4996247185389043,0.6439829872404305,0.4260930986971764,0.0,0.2768282261018191
0.4952476238119059,0.4898674005504129,0.7530647985989494,0.5006557720145804,0.4942009522646807,0.5004272982541814
0.7651325662831414,0.3995496622466851,0.6612459344508382,0.4558348012627099,0.9621378865305126,0.444496572893594
0.5215107553776888,0.3705278959219416,0.6039529647235428,0.0,0.5677415979210632,0.3809983082477283
0.4954977488744371,0.4901175881911435,0.7530647985989494,0.5005807768107854,0.4942619948724209,0.5005650801402236
0.5442721360680339,0.4293219914936203,0.3962972229171879,0.6003697437954549,1.0,0.7707239653277989
0.8261630815407703,0.1368526394796098,0.6805103827870904,0.45482847027225,0.4871043130962554,0.4076425344890734
0.5560280140070034,0.1996497373029773,0.4911183387540656,0.6815407154193627,0.5263861032143293,0.3965170832097947
0.5367683841920959,0.3785339004253191,0.8398799099324494,0.1885902645761027,0.541723494427682,0.625625686729337
0.605552776388194,0.2391793845384039,0.4343257443082312,0.0,0.4434291992953939,0.6160123480475086
0.4944972486243121,0.4898674005504129,0.7528146109582188,0.5006261227479638,0.4942776915429827,0.5005040375324834
0.5802901450725362,0.1508631473605204,0.4883662747060296,0.0,0.9050020056856828,0.2867171285557319
0.5635317658829414,0.3880410307730799,0.5273955466599951,0.0,0.4583375481800582,0.3579991977257268
0.4882441220610304,0.3217413059794847,0.7192894671003254,0.0,0.5030521303870101,0.3139735249489858
0.5685342671335667,0.4585939454590944,0.7132849637227923,0.0,0.0,0.4819924307166402
0.4944972486243121,0.4893670252689518,0.7525644233174882,0.5007325112928824,0.4941399096569405,0.5005947294068402
0.4947473736868433,0.4891168376282213,0.7528146109582188,0.5006557720145804,0.4941852555941189,0.5005336867991
0.4099549774887443,0.4986239679759821,0.6369777332999751,0.7254617437256919,0.0041508973263337,0.4221096325235014
0.4939969984992495,0.4891168376282213,0.7528146109582188,0.5006557720145804,0.4942323456058042,0.5004883408619216
0.1713356678339169,0.4003002251688767,0.6464848636477359,0.6153251826918046,0.5750056682421473,0.4813663079686764
0.7661330665332666,0.4178133600200151,0.6337252939704779,0.5746708059368296,0.0,0.188255402270785
0.6518259129564782,0.1183387540655492,0.4308231173380036,0.30722744475644,0.7100929591712157,0.4729424281005284
0.5472736368184091,0.3107330497873406,0.5278959219414562,0.3726197743167588,0.4982594136421508,0.3745731377644453
0.5982991495747874,0.4408306229672255,0.7027770828121092,0.0,0.6320665538831819,0.5945096534523955
0.4954977488744371,0.490367775831874,0.7525644233174882,0.500687165355704,0.4942619948724209,0.5004883408619216
0.4944972486243121,0.4891168376282213,0.7523142356767576,0.500610426077402,0.4941852555941189,0.5004883408619216
0.5940470235117559,0.4235676757568177,0.4743557668251189,0.4144182639482359,1.0,0.6333467045712193
0.4952476238119059,0.4898674005504129,0.7530647985989494,0.5005807768107854,0.494171302998064,0.5005040375324834
0.0760380190095047,0.3610207655741807,0.4751063297473106,0.6820900988890245,0.8678584509130229,0.762514606623995
0.4942471235617808,0.4878658994245685,0.7528146109582188,0.5006261227479638,0.4942009522646807,0.5005197342030452
0.6823411705852925,0.38353765323993,0.5956967725794347,0.4837626663411061,0.670340268936289,0.5254094214904861
0.6698349174587293,0.333750312734551,0.4731048286214662,0.0,0.4773845858695083,0.4194237577829325
0.4954977488744371,0.4913685263947962,0.7530647985989494,0.5002598671015226,0.4959258419519682,0.4775049270104818
0.7798899449724861,0.5293970477858395,0.7295471603702779,0.4819924307166402,0.9200795297975128,0.5408688979193191
0.5080040020010005,0.5121341005754317,0.7430572929697274,0.5002895163681392,0.4932085738702757,0.5547866124840853
0.4982491245622811,0.4988741556167126,0.7520640480360272,0.5004272982541814,0.4945515112405602,0.4946282505188621
0.5257628814407203,0.2171628721541156,0.461596197147861,1.0,0.4866927115126358,0.2895250885117812
0.5957978989494747,0.3557668251188393,0.3510132599449588,1.0,0.6661126323316532,0.2308020998657062
0.549024512256128,0.5066299724793597,0.6299724793595197,0.2135566911418456,0.0,0.0
0.1113056528264131,0.404053039779835,0.5741806354766076,0.6537663288975705,0.3661632104923522,0.4700437762701223
0.6113056528264131,0.2166624968726546,0.6062046534901177,0.0,0.4616966356802762,0.4930864886547953
0.656328164082041,0.2574430823117339,0.519139354515887,0.1631825871601234,0.4745452325723355,0.5218532535709925
0.6753376688344171,0.2419314485864399,0.4125594195646735,1.0,0.500687165355704,0.5716186755498195
0.1350675337668834,0.4778583937953466,0.6157117838378785,0.6026736662190209,0.9955735389015818,0.7499851753666916
0.5542771385692846,0.4811108331248437,0.6037027770828122,0.0,0.6604496224078693,0.5023492683607443
0.4954977488744371,0.4898674005504129,0.7528146109582188,0.5005650801402236,0.4941556063275023,0.5004883408619216
0.4952476238119059,0.4901175881911435,0.7525644233174882,0.5006261227479638,0.4942323456058042,0.5005336867991
0.3016508254127063,0.5626720040030024,0.652489367025269,0.2272773252873363,0.0,0.0
0.3611805902951475,0.474355766825119,0.6214660995746811,0.7309084884106248,0.0,0.3903988698397195
0.508504252126063,0.3590192644483364,0.6369777332999751,1.0,0.5309799954654063,0.472209916807646
0.4882441220610304,0.516387290467851,0.6715036277207908,0.6112806739103894,0.0,0.629455674346408
0.4952476238119059,0.4898674005504129,0.7528146109582188,0.5007028620262658,0.494171302998064,0.5005650801402236
0.6890945472736367,0.3937953465098825,0.7082812109081813,0.4312346303434082,0.9386975251582748,0.4084674817308195
0.7711355677838918,0.2461846384788592,0.3600200150112584,0.94327572073879,0.3655998744266355,0.5343669881577341
0.1630815407703851,0.4210657993495122,0.7057793345008758,0.4618030242251949,1.0,0.6847759736295934
0.5087543771885943,0.3002251688766576,0.3805354015511634,0.6248931754364546,0.5047159774665574,0.509111045223852
0.4947473736868433,0.4898674005504129,0.7523142356767576,0.500687165355704,0.4942323456058042,0.5005040375324834
0.6493246623311655,0.21916437327996,0.5631723792844634,0.0,0.4209812163175611,0.4745609292428973
0.6913456728364181,0.5621716287215412,0.7075306479859896,0.474194673596456,1.0,0.5286743289673335
0.5717858929464732,0.4448336252189143,0.7285464098073556,0.0,0.587962397753632,0.5250117725029213
0.3971985992996498,0.4365774330748062,0.4856142106579936,0.6330432356070251,1.0,0.8062961089697752
0.5210105052526263,0.2992244183137353,0.4883662747060296,0.0,0.0821337007516961,0.359434571044875
0.5627813906953476,0.3950462847135352,0.3107330497873405,0.8233426931998535,0.4315712367232328,0.6165599874426635
0.4884942471235617,0.5078809106830124,0.7375531648736553,0.5014493259152031,0.4997261803024225,0.3926713989221619
0.1675837918959479,0.5283962972229174,0.5714285714285715,0.9197900134293736,1.0,0.6793885274778938
0.4942471235617808,0.4883662747060296,0.7528146109582188,0.5005493834696618,0.4942462982018591,0.5004883408619216
0.4952476238119059,0.490367775831874,0.7528146109582188,0.5006557720145804,0.4942323456058042,0.5001674311526588
0.5417708854427213,0.3309982486865149,0.670252689517138,0.0,0.1172628494689293,0.4859288068786299
0.1555777888944472,0.5344008006004505,0.503127345509132,0.610319688857108,1.0,0.7238746359244467
0.545272636318159,0.4623467600700526,0.1035776832624468,0.0,0.8862619251094407,0.490355267977048
0.4954977488744371,0.4901175881911435,0.7525644233174882,0.500687165355704,0.4942009522646807,0.5005040375324834
0.5232616308154077,0.3740305228921692,0.4733550162621967,0.0,0.3331548563754644,0.5531995046828401
0.3804402201100549,0.5836877658243684,0.730047535651739,0.2943021085860788,0.0,0.2684200429042329
0.6945972986493246,0.4015511633725295,0.6514886164623469,0.2766137049374749,0.0,0.2608961054816262
0.4952476238119059,0.4896172129096824,0.7528146109582188,0.5006418194185256,0.4942166489352425,0.5005493834696618
0.5092546273136568,0.2967225419064299,0.4768576432324244,0.0,0.3908261680939009,0.5160385091651115
0.4949974987493746,0.4891168376282213,0.7523142356767576,0.5006714686851422,0.4941852555941189,0.5004726441913598
0.4952476238119059,0.4898674005504129,0.7525644233174882,0.5007028620262658,0.4942166489352425,0.5005197342030452
0.345672836418209,0.8348761571178386,1.0000000000000002,1.0,0.2287266512025393,0.3263494776496852
0.6815907953976987,0.2994746059544659,0.5544158118588942,0.0,0.4050473516228613,0.3631738667875892
0.728864432216108,0.4943707780835628,0.8061045784338254,1.0,0.206324014161885,0.2141688612937544
0.228864432216108,0.4370778083562673,0.6750062546910184,0.5330850933951898,1.0,0.5797530390498282
0.4954977488744371,0.4898674005504129,0.7528146109582188,0.500610426077402,0.4941556063275023,0.5004883408619216
0.666833416708354,0.2509382036527396,0.5436577433074807,0.0,0.5060118248251565,0.2903500357535274
0.4944972486243121,0.4888666499874907,0.7525644233174882,0.5006714686851422,0.4942323456058042,0.5004726441913598
0.5345172586293147,0.3782837127845885,0.7010257693269953,1.0,0.5223729877740377,0.5067303835219841
0.5495247623811905,0.3137353014761072,0.5118839129347011,1.0,0.3451959467708461,0.4569492648725953
0.2543771885942971,0.4295721791343508,0.591693770327746,0.5287510682456354,0.4081465720215568,0.4599403526518653
0.3376688344172086,0.5041280960720542,0.6467350512884664,0.4156844620402183,0.0,0.372680816924499
0.4942471235617808,0.4891168376282213,0.7528146109582188,0.5006714686851422,0.4941852555941189,0.5005040375324834
0.553776888444222,0.42006504878659,0.6352264198148613,0.526874444076251,0.6113417165181296,0.3731534611158589
0.4069534767383691,0.5936952714535904,0.6935201401050789,0.6709960409508694,0.0,0.5960200219753388
0.6598299149574787,0.2639479609707281,0.4761070803102327,0.2890977902575998,0.5823307811709716,0.4383923121195737
0.5765382691345672,0.4553415061295973,0.7740805604203154,0.581765701030748,0.4675863752899524,0.5550604321816628
0.6975987993996997,0.4310733049787342,0.6594946209657244,0.5982629017911645,0.1453267523588607,0.4789246036590683
0.4954977488744371,0.4898674005504129,0.7525644233174882,0.5005336867991,0.4940788670492003,0.5005197342030452
0.5272636318159079,0.4340755566675007,0.7057793345008758,0.0,0.4435355878403125,0.4523414200254635
0.2133566783391696,0.430072554415812,0.6634976232174132,0.6454034916371627,0.1040479969304289,0.4076878804262518
0.4994997498749374,0.2276707530647987,0.5021265949462097,1.0,0.3057624221706751,0.3690932556638819
0.4944972486243121,0.4881160870652991,0.7525644233174882,0.5006261227479638,0.4941852555941189,0.5004883408619216
0.1453226613306653,0.3209907430572931,0.5028771578684014,0.6392067949142788,0.6654254669759492,0.320077785723006
0.4952476238119059,0.4898674005504129,0.7528146109582188,0.5007028620262658,0.4941556063275023,0.5004883408619216
0.4947473736868433,0.4893670252689518,0.7525644233174882,0.5006418194185256,0.4941556063275023,0.5004883408619216
0.4947473736868433,0.4888666499874907,0.7528146109582188,0.5007028620262658,0.4941556063275023,0.5000906918743568
0.5640320160080039,0.5118839129347011,0.8271203402551915,0.5343059455499939,0.5994541046793519,0.6759544447738808
0.5477738869434716,0.2812109081811359,0.5168876657493121,0.0,0.5746237159251443,0.5143764061600712
0.5300150075037519,0.4258193645233926,0.7483112334250689,0.5623245025027469,0.5103458499747109,0.5217608176221288
0.4942471235617808,0.4891168376282213,0.7530647985989494,0.500687165355704,0.4942009522646807,0.5005040375324834
0.168584292146073,0.3179884913685264,0.5118839129347011,0.6156303957305056,0.4037358075937004,0.3584264959799083
0.6585792896448224,0.3717788341255943,0.5041280960720541,0.2709681357587596,0.0,0.0046845841254338
0.4439719859929965,0.2351763822867151,0.3690267700775582,1.0,0.5273174390009941,0.5446064495875264
0.5517758879439719,0.2852139104328247,0.5746810107580687,1.0,0.4714774055147636,0.4145856951008947
0.4952476238119059,0.4898674005504129,0.7528146109582188,0.5007482079634442,0.4942009522646807,0.5005493834696618
0.1308154077038519,0.4588441330998249,0.555666750062547,0.5056002232415369,0.0196871130334688,0.4710047613234037
0.4952476238119059,0.4898674005504129,0.7525644233174882,0.500610426077402,0.4942166489352425,0.5005197342030452
0.5315157578789395,0.4158118588941707,0.7102827120340256,0.670950695013691,0.6545302335315765,0.5482847027225003
0.3236618309154577,0.5399049286965225,0.6900175131348513,0.412724767602072,0.3477911296370581,0.2796675793989919
0.4952476238119059,0.4908681511133351,0.7530647985989494,0.5006557720145804,0.4941556063275023,0.4994349198597764
0.4949974987493746,0.4896172129096824,0.7530647985989494,0.5006261227479638,0.4941852555941189,0.5005807768107854
0.5182591295647824,0.3665248936702527,0.7370527895921942,0.3079599560493224,0.4260930986971764,0.4155013342169977
0.3401700850425212,0.1346009507130348,0.373029772329247,0.0,0.730435844219265,0.5075535866892233
0.7501250625312655,0.4340755566675007,0.0,0.9984285888693164,0.0,0.5425310009243595
0.4952476238119059,0.4896172129096824,0.7528146109582188,0.5006261227479638,0.4942166489352425,0.5005493834696618
0.2823911955977989,0.5486614961220917,0.709532149111834,0.5101784188220521,0.0,0.3026039032387463
0.6410705352676337,0.5001250938203654,0.7998498874155617,0.0,0.4219718506374592,0.3544901198179186
0.4952476238119059,0.4896172129096824,0.7528146109582188,0.500610426077402,0.4942166489352425,0.5005197342030452
0.4952476238119059,0.4898674005504129,0.7530647985989494,0.5005650801402236,0.4942166489352425,0.5004726441913598
0.3029014507253627,0.4188141105829373,0.6052039029271955,0.8263023876379999,0.8153147182447634,0.6095871775642255
0.4954977488744371,0.487615711783838,0.7523142356767576,0.500610426077402,0.4942323456058042,0.5004726441913598
0.5292646323161581,0.4488366274706031,0.7265449086815112,0.5506496677538064,0.600674956834156,0.4851056037113905
0.5355177588794396,0.294470853139855,0.3410057543157369,0.6880722744475644,0.4738580672166315,0.728986518304062
0.3036518259129565,0.4751063297473106,0.7465599199399551,0.6269075814918813,0.0,0.4140816575684113
0.4939969984992495,0.4886164623467602,0.7530647985989494,0.5008232031672393,0.4941852555941189,0.5005493834696618
0.4952476238119059,0.4898674005504129,0.7523142356767576,0.5006714686851422,0.494171302998064,0.5005197342030452
0.808904452226113,0.2982236677508132,0.5849387040280212,0.6221462580881455,0.3978757172506409,0.4942009522646807
0.5465232616308153,0.4028021015761822,0.659744808606455,1.0,0.6141200272075623,0.5121021330031219
0.8536768384192095,0.362521891418564,0.6740055041280961,0.5641261314683363,0.0880687862985507,0.333414723476987
0.4954977488744371,0.4896172129096824,0.7530647985989494,0.5006714686851422,0.494171302998064,0.5005197342030452
0.4947473736868433,0.4891168376282213,0.7525644233174882,0.500610426077402,0.4942776915429827,0.5005040375324834
0.550025012506253,0.4150612959719791,0.7285464098073556,0.0,0.4428030765474301,0.5239897448418996
0.1418209104552276,0.4253189892419315,0.6657493119839881,0.5169855416223381,0.846493538203952,0.5029300451715297
0.2498749374687343,0.5379034275706781,0.7055291468601452,0.3126445401747563,0.0,0.4783595235188447
0.0540270135067534,0.3024768576432325,0.7330497873405055,0.6409770305387446,0.4591624954218044,0.6085947991698205
0.2413706853426713,0.4165624218163624,0.5436577433074807,0.5167099778502537,0.96632017719797,0.3931754364546453
0.5335167583791895,0.4263197398048537,0.6529897423067301,0.4044386696199661,1.0,0.7856637075535866
0.2021010505252626,0.4403302476857644,0.5659244433324995,0.3509496485689869,0.0136125015260652,0.4727749969478696
0.2338669334667333,0.432824618463848,0.6319739804853641,0.4663969164762718,0.9947660324049044,0.5239740481713379
0.5200100050025012,0.4913685263947962,0.5874405804353265,0.253708774438844,1.0,0.6829150461307707
0.1210605302651325,0.354766074555917,0.6817613209907432,0.7128712698606484,0.6470062961089698,0.5473376702652737
0.5070035017508754,0.4508381285964474,0.7373029772329248,0.5420130107958212,0.5278057798629158,0.4469539738737639
0.4982491245622811,0.5694270703027272,0.717788341255942,0.135971536704048,0.4415211817848858,0.5649650313061374
0.4952476238119059,0.4911183387540657,0.7528146109582188,0.5005947294068402,0.4942009522646807,0.4999546540628216
0.576288144072036,0.2864648486364775,0.3877908431323493,0.4503566632366534,0.486677014842074,0.5034637319706298
0.6850925462731365,0.4293219914936203,0.5801851388541407,0.586359593281825,1.0,0.4973594711966095
0.5647823911955977,0.268451338503878,0.6262196647485615,0.4306242042660062,0.5655283673718541,0.5661544901198179
0.2633816908454227,0.4713535151363524,0.7080310232674507,0.0731743900099411,1.0,0.8251129288243193
0.7321160580290145,0.3057292969727296,0.7015261446084564,0.370619320857387,0.2397439698623925,0.3627308718628459
0.5967983991995998,0.4463347510632976,0.4886164623467601,0.5350994994506165,0.0,0.0813697961176901
0.5980490245122561,0.4893670252689518,0.6632474355766826,1.0,0.3881542459493869,0.4594380591938887
0.4959979989994997,0.4906179634726046,0.7518138603952966,0.5007168146223206,0.4940945637197621,0.5005040375324834
0.7041020510255127,0.4435826870152616,0.5566675006254692,0.5857805605455465,1.0,0.8139421316078623
0.4109554777388694,0.5103827870903179,0.592194145609207,0.4768195057292848,1.0,0.4619861520484155
0.2493746873436718,0.5093820365273957,0.6174630973229923,0.6087325810558627,1.0,0.6293946317386678
0.4952476238119059,0.4898674005504129,0.7528146109582188,0.5006557720145804,0.4941556063275023,0.5005040375324834
0.5535267633816908,0.3677758318739055,0.7270452839629724,0.3044508781415142,0.6144095435757015,0.5438896349652057
0.4952476238119059,0.4896172129096824,0.7528146109582188,0.500610426077402,0.4941852555941189,0.5004116015836196
0.4954977488744371,0.4901175881911435,0.7528146109582188,0.5005493834696618,0.4942323456058042,0.5004883408619216
0.4952476238119059,0.4901175881911435,0.7528146109582188,0.5005947294068402,0.4941556063275023,0.5004726441913598
0.4977488744372185,0.3782837127845885,0.8093570177633227,0.0,0.6425658824144967,0.5485131764828993
0.6500750375187593,0.5664248186139607,0.6782586940205155,0.541493276592776,1.0,0.837764445297103
0.6035517758879438,0.2554415811858895,0.5731798849136853,1.0,0.3329577759561888,0.3382527861590247
0.4954977488744371,0.4901175881911435,0.7525644233174882,0.5007028620262658,0.4941399096569405,0.5005197342030452
0.532016008004002,0.4623467600700526,0.707280460345259,0.0,0.1949247431850289,0.728145874391754
0.557528764382191,0.4285714285714287,0.4495871903927946,0.6366290527931353,1.0,0.7451471126846538
0.4952476238119059,0.4901175881911435,0.7528146109582188,0.5006557720145804,0.4942323456058042,0.5005197342030452
0.5492746373186592,0.430072554415812,0.6362271703777834,0.0,0.3948392835341926,0.6493102185325357
0.526513256628314,0.4283212409306981,0.8096072054040532,0.0586619460383347,0.4508450040985751,0.6537506322270088
0.7861430715357678,0.2331748811608707,0.735551663747811,0.4891501124928057,0.463480823900797,0.5018155815616443
0.3344172086043021,0.4640980735551665,0.664748561421066,0.7239949770654202,0.0,0.3792577218898791
0.4927463731865932,0.487615711783838,0.7538153615211409,0.5005807768107854,0.4942009522646807,0.5005040375324834
0.7233616808404202,0.1290968226169627,0.216412309231924,0.080544848875944,0.4909203481172716,0.2538465563248862
0.4552276138069034,0.5791843882912185,0.9044283212409308,0.0073251129288243,0.5931963653487277,0.5334060031044526
0.5027513756878439,0.5096322241681263,0.7508131098323744,0.500610426077402,0.4937422606693758,0.5381062839004482
0.4952476238119059,0.4901175881911435,0.7528146109582188,0.5005807768107854,0.4941242129863787,0.5005336867991
0.4929964982491245,0.4881160870652991,0.7540655491618715,0.5005807768107854,0.4942009522646807,0.5005197342030452
0.6463231615807903,0.3817863397548162,0.6880160120090069,0.2510072030277134,0.1221916040253239,0.6310584788182151
0.2318659329664832,0.4280710532899676,0.5033775331498624,0.5184034741964176,0.3908104714233392,0.3293859113661336
0.2661330665332666,0.4298223667750814,0.6487365524143108,0.227840661353053,1.0,0.5067914261297243
0.6490745372686342,0.4843632724543409,0.7165374030522893,1.0,0.5613931667160821,0.403765456860317
0.5390195097548773,0.4310733049787342,0.7187890918188643,0.0,0.3586863630814308,0.4539738737638872
0.5482741370685342,0.3302476857643233,0.5481611208406305,0.0,0.5321084116713466,0.3108132619425502
0.7623811905952975,0.4110582937202903,0.9091818864148112,0.4541726982576696,0.2680834365244083,0.49801524321119
0.864432216108054,0.3107330497873406,0.6777583187390543,0.8645778467656138,0.5225700681933132,0.6917801768491549
0.5782891445722861,0.4968726544908682,0.738804103077308,1.0,0.4345780211730645,0.5166646319130753
0.4942471235617808,0.4886164623467602,0.7525644233174882,0.5006714686851422,0.4942776915429827,0.5004883408619216
0.4954977488744371,0.4901175881911435,0.7525644233174882,0.5006418194185256,0.4942323456058042,0.5005493834696618
0.4939969984992495,0.4888666499874907,0.7528146109582188,0.5007325112928824,0.4942166489352425,0.5005947294068402
0.5737868934467233,0.4711033274956218,0.7595696772579437,0.3588537942340897,0.5768979890820936,0.5285068978146746
0.5015007503751875,0.5666750062546911,0.6720040030022518,0.5246158675898634,0.0,0.3206411217887228
0.5822911455727864,0.2266700025018765,0.5431573680260195,0.5401503392224916,0.4228735371575073,0.7555243560004883
0.4937468734367183,0.4901175881911435,0.7528146109582188,0.5006714686851422,0.4941852555941189,0.5005336867991
0.8781890945472735,0.2644483362521892,0.7167875906930199,0.4959397945480231,0.2213108463993581,0.2747231281720355
0.4384692346173086,0.3462596947710784,0.5934450838128598,0.0006400753440187,0.3307741946735965,0.5336030835237281
0.9262131065532764,0.2847135351513636,0.9559669752314236,0.4678148490503514,0.1497532134572789,0.3501403979978025
0.5502751375687843,0.1611208406304729,0.4498373780335252,0.986052636168617,0.4304881664544709,0.3497287964141828
0.9542271135567784,0.262947210407806,0.5211408556417314,0.3925336170361198,0.2001430141095627,0.3835464011022551
0.5852926463231616,0.2476857643232425,0.3450087565674256,0.4102220206847237,0.4210108655841778,0.636963915098453
0.5660330165082541,0.4896172129096824,0.6815111333500126,0.0,0.3408776182918534,0.573495299719204
0.4947473736868433,0.4893670252689518,0.7528146109582188,0.500687165355704,0.4942619948724209,0.5002738196975774
0.4942471235617808,0.4893670252689518,0.7528146109582188,0.5007482079634442,0.4942323456058042,0.5005040375324834
0.3236618309154577,0.4713535151363524,0.6429822366775082,0.1964804576451506,1.0,0.7441547342902489
0.6465732866433216,0.3860395296472355,0.5774330748061047,0.0,0.8298585555574933,0.4002720756230706
0.4937468734367183,0.4873655241431074,0.7528146109582188,0.500610426077402,0.4941242129863787,0.5004883408619216
0.4947473736868433,0.4908681511133351,0.7528146109582188,0.5006418194185256,0.4943387341507229,0.4987024085668939
0.4384692346173086,0.5173880410307732,0.777082812109082,0.5766852119922563,0.0,0.2246367964839458
0.693096548274137,0.4020515386539906,0.6094570928196148,0.6870955927237212,1.0,0.5968589218131398
0.4952476238119059,0.487615711783838,0.7525644233174882,0.5007168146223206,0.4941852555941189,0.5004726441913598
0.56128064032016,0.2807105328996748,0.5641731298473857,1.0,0.6931841568271797,0.366178907162914
0.4202101050525262,0.226920190142607,0.3732799599699775,0.4912255611559726,0.569054886024731,0.5008545965083628
0.5877938969484742,0.1656242181636228,0.7240430322742057,0.1498909953433211,0.4453825627430804,0.5342902488794321
0.2413706853426713,0.3915436577433075,0.7645734300725546,0.2807349529971921,1.0,0.5463313392748138
0.4952476238119059,0.4896172129096824,0.7525644233174882,0.5006714686851422,0.4942009522646807,0.5005493834696618
0.6035517758879438,0.2529397047785841,0.3192394295721792,0.9221549784606796,0.4459005528716186,0.4971466941067722
0.4954977488744371,0.4901175881911435,0.7528146109582188,0.5005807768107854,0.494171302998064,0.5005336867991
0.7661330665332666,0.4681010758068553,0.7888416312234177,0.6266023684531803,0.2246681898250693,0.4209341263058758
0.4139569784892446,0.3810357768326246,0.6920190142606957,0.4028969077558993,0.4972984285888693,0.5119800477876415
0.7988994497248623,0.3385038779084314,0.5198899174380787,0.4729267314299666,0.7574777194481748,0.688255402270785
0.5700350175087543,0.4921190893169879,0.5076307230422819,0.4564155780734953,0.0,0.1588014719988837
0.6585792896448224,0.3284963722792094,0.3587690768076058,0.3154681968013673,0.3191150565952177,0.7456511502171372
0.4619809904952475,0.5196397297973482,0.7538153615211409,0.5007028620262658,0.4937579573399375,0.5048537593525996
0.4942471235617808,0.4888666499874907,0.7528146109582188,0.5006418194185256,0.4942462982018591,0.5004569475207981
0.6900950475237618,0.4290718038528898,0.7968476357267953,0.6013917714564766,0.007659975234142,0.6161030399218654
0.5485242621310654,0.3630222667000251,0.6815111333500126,0.0,0.4551947259186912,0.6827005249664265
0.5880440220110055,0.2141606204653491,0.5073805354015513,1.0,0.4542633901320264,0.4464656330118423
0.493496748374187,0.4901175881911435,0.7525644233174882,0.500763904634006,0.4942009522646807,0.5005197342030452
0.5107553776888444,0.4303227420565425,0.8068551413560172,1.0,0.5770061217015191,0.6726895372970333
0.4952476238119059,0.4901175881911435,0.7525644233174882,0.5006714686851422,0.4941399096569405,0.5005197342030452
0.4954977488744371,0.4896172129096824,0.7528146109582188,0.500610426077402,0.494171302998064,0.5004726441913598
0.689344672336168,0.3172379284463348,0.5646735051288467,0.6278389172785461,0.0002755637720843,0.343975094616042
0.4952476238119059,0.4898674005504129,0.7525644233174882,0.5006418194185256,0.4941852555941189,0.5005197342030452
0.604552276138069,0.3134851138353766,0.4828621466099576,1.0,0.3872996494410241,0.537586549697403
0.4954977488744371,0.490367775831874,0.7528146109582188,0.5005807768107854,0.4942323456058042,0.5004569475207981
0.0730365182591295,0.4851138353765325,0.6074555916937704,0.6115701902785287,0.3183982419728971,0.6176744510525489
0.4949974987493746,0.4896172129096824,0.7530647985989494,0.5005947294068402,0.4941556063275023,0.5005493834696618
0.14032016008004,0.5328996747560671,0.5033775331498624,0.6384289376842178,0.2692589427420339,0.5110033660637983
0.4579789894947473,0.3437578183637729,0.4726044533400051,0.0,0.5310549906692014,0.4680293702146956
0.3261630815407703,0.4530898173630224,0.6925193895421567,0.2672741859532239,1.0,0.6925440814831609
0.4949974987493746,0.4896172129096824,0.7533149862396799,0.5008232031672393,0.4942619948724209,0.4924464133107766
0.4952476238119059,0.4898674005504129,0.7525644233174882,0.5006418194185256,0.4941852555941189,0.5004726441913598
0.682841420710355,0.318238679009257,0.6354766074555918,1.0,0.3894064914453145,0.2135723878124073
0.4942471235617808,0.4888666499874907,0.7528146109582188,0.5005807768107854,0.494171302998064,0.5005336867991
0.54152076038019,0.2444333249937454,0.5281461095821868,1.0,0.5497340286377034,0.4740272424437972
0.1978489244622311,0.4640980735551665,0.3242431823867902,0.8049688682700524,0.3808762230322479,0.6421525367563702
0.4954977488744371,0.4901175881911435,0.7533149862396799,0.5005650801402236,0.4942166489352425,0.5005040375324834
0.5597798899449724,0.4773580185138855,0.7483112334250689,0.056419066222509,0.6275023108987215,0.5484678305457209
0.0007503751875937,0.3355016262196648,0.4198148611458595,0.4444669236269774,0.938681828487713,0.7720965519646998
0.1278139069534767,0.38353765323993,0.652489367025269,0.6295481102952718,0.7639935818058148,0.5432792088878037
0.4952476238119059,0.4898674005504129,0.7530647985989494,0.5006418194185256,0.4942009522646807,0.5005040375324834
0.5602801400700349,0.5624218163622718,0.3770327745809357,0.0,0.5667649161972199,0.7029352773950504
0.2886443221610805,0.5016262196647487,0.5541656242181637,0.7924708303538727,1.0,0.8195127055827824
0.3011505752876438,0.4440830622967227,0.5744308231173381,0.6780612867781711,0.0,0.3305614175837592
0.4022011005502751,0.6159619714786091,0.6677508131098325,0.0097511205678706,0.0,0.0055252280377418
0.5395197598799399,0.2689517137853391,0.503627720790593,0.1082581927899959,0.4459319462127422,0.5195632837434815
0.1955977988994496,0.3987990993244935,0.4540905679259445,0.5371749481137834,0.4902942253693078,0.6107155937701658
0.5262631315657829,0.4488366274706031,0.741055791843883,1.0,0.7226066937579574,0.5164204614821145
0.1435717858929464,0.4555916937703279,0.646985238929197,0.5428972565708007,0.1261297242618204,0.5923731621814884
0.6118059029514756,0.5626720040030024,0.7865899424568428,1.0,0.2098487887402549,0.4847236513943875
0.5277638819409705,0.2144108081060796,0.4323242431823869,1.0,0.3516821598618693,0.5285365470812913
0.068784392196098,0.2551913935451589,0.659744808606455,0.5381516298376267,0.9889512879990232,0.7248513176482899
0.4952476238119059,0.4901175881911435,0.7530647985989494,0.500610426077402,0.4941556063275023,0.5005493834696618
0.5872936468234117,0.4961220915686766,0.7102827120340256,0.3695362505886251,0.4620768439227724,0.4413990965694054
0.6265632816408203,0.4573430072554417,0.6810107580685515,1.0,0.2083994628250519,0.4185848579451314
0.4952476238119059,0.4898674005504129,0.7523142356767576,0.500687165355704,0.4942009522646807,0.5004272982541814
0.4957478739369684,0.4898674005504129,0.7525644233174882,0.5007482079634442,0.494171302998064,0.5004726441913598
0.6090545272636317,0.4498373780335252,0.7813360020015012,0.0,0.7424158920069065,0.4612379440849713
0.5310155077538768,0.3917938453840381,0.5561671253440081,0.3513769468231683,1.0,0.4902942253693078
0.4947473736868433,0.4891168376282213,0.7525644233174882,0.5005947294068402,0.4942009522646807,0.5004883408619216
0.68184092046023,0.3740305228921692,0.4405804353264949,0.4775049270104818,1.0,0.805457209131974
0.7188594297148574,0.38353765323993,0.446084563422567,0.7953084395765386,1.0,0.7390585485811954
0.4952476238119059,0.4898674005504129,0.7528146109582188,0.5005807768107854,0.494171302998064,0.5005040375324834
0.4942471235617808,0.4886164623467602,0.7525644233174882,0.5005947294068402,0.4942009522646807,0.5005493834696618
0.4947473736868433,0.4888666499874907,0.7530647985989494,0.500610426077402,0.4942323456058042,0.5005336867991
0.8304152076038018,0.3422566925193896,0.7625719289467101,0.3663620349861346,0.1212916615797827,0.4373999337251687
0.6805902951475737,0.3254941205904429,0.5066299724793596,0.6470062961089698,0.0,0.3756876013743307
0.2346173086543271,0.5631723792844635,0.3790342757067801,0.6445192458621832,1.0,0.8094546279017039
0.4952476238119059,0.4898674005504129,0.7528146109582188,0.5006418194185256,0.4941556063275023,0.5005807768107854
0.4962481240620309,0.4901175881911435,0.7520640480360272,0.5007482079634442,0.4940631703786385,0.5006418194185256
0.565032516258129,0.3980485364023018,0.6492369276957719,1.0,0.4189197202504491,0.4748800948776531
0.513256628314157,0.32874655991994,0.5861896422316738,1.0,0.4145089558225927,0.4432600240682282
0.8879439719859928,0.2324243182386791,0.7375531648736553,0.6130823028759789,0.4709890646528419,0.3862165791722622
0.4942471235617808,0.4888666499874907,0.7528146109582188,0.5006261227479638,0.4942323456058042,0.5004883408619216
0.4924962481240619,0.2924693520140106,0.4801100825619215,0.7361895460174058,0.467769503113173,0.4938346966182395
0.4952476238119059,0.4898674005504129,0.7528146109582188,0.5005947294068402,0.4941852555941189,0.5005807768107854
0.4952476238119059,0.4898674005504129,0.7525644233174882,0.5005807768107854,0.494108516315817,0.5004726441913598
0.6288144072036017,0.1561170878158619,0.4368276207155367,0.9433978059542704,0.4429548110295271,0.5546174372569196
0.1753376688344172,0.4138103577683263,0.5471603702777084,0.4335089035003575,0.1127753457627709,0.3809355215654812
0.8369184592296147,0.2804603452589443,0.4030522892169128,0.5450337478417078,0.6137223782199975,0.629380679142613
0.5812906453226613,0.394045534150613,0.5263947960970728,1.0,0.3666062054170954,0.5809268011929469
0.4854927463731865,0.3082311733800351,0.3822867150362773,0.9993599246559812,0.5321851509496486,0.5828662120445786
0.4952476238119059,0.4898674005504129,0.7533149862396799,0.5006557720145804,0.4942166489352425,0.5005650801402236
0.4034517258629314,0.4258193645233926,0.6359769827370529,0.6019097615850149,0.8784798646598182,0.7601182482515654
0.5185092546273136,0.3512634475856894,0.6184638478859146,1.0,0.5445000610426077,0.4286865374888815
0.2948974487243622,0.3445083812859646,0.4390793094821116,0.5094302108586078,0.7674573137764445,0.4364860386835725
0.3424212106053026,0.4863647735801852,0.6870152614460847,0.565453372168059,0.0,0.2343722203812547
0.7866433216608303,0.4288216162121592,0.670252689517138,0.4062839004482271,0.7522280551825173,0.679221096325235
0.5180090045022511,0.1938954215661747,0.3552664498373781,0.968685142229276,0.3754120376022464,0.5376475923051433
0.44072036018009,0.3855391543657744,0.7373029772329248,1.0,0.8184906779217608,0.4433978059542703
0.4952476238119059,0.4901175881911435,0.7530647985989494,0.5006557720145804,0.494108516315817,0.5004726441913598
0.4954977488744371,0.4898674005504129,0.7528146109582188,0.5006557720145804,0.4941556063275023,0.5004429949247432
0.5422711355677838,0.2692019014260696,0.6147110332749564,0.0,0.215586793867834,0.4169053141950224
0.4814907453726862,0.4473355016262198,0.6579934951213411,0.0,0.3890402357988733,0.5948916057693985
0.4937468734367183,0.4883662747060296,0.7530647985989494,0.500763904634006,0.4942462982018591,0.5004883408619216
0.4454727363681841,0.5188891668751565,0.641981486114586,0.4239862566928859,0.0,0.2513577620035928
0.4952476238119059,0.4898674005504129,0.7523142356767576,0.5006714686851422,0.4941399096569405,0.5004883408619216
0.5080040020010005,0.3647735801851389,0.6925193895421567,0.0,0.5051432757207388,0.7015173448209707
0.5835417708854427,0.1496122091568677,0.3119839879909933,0.4631913075326578,0.6311805640336955,0.4553325078047334
0.4947473736868433,0.4893670252689518,0.7520640480360272,0.5006418194185256,0.4942166489352425,0.5004429949247432
0.4939969984992495,0.4886164623467602,0.7528146109582188,0.5006557720145804,0.4942009522646807,0.5004726441913598
0.5375187593796897,0.4613460095071304,0.7147860895671755,0.005661265849277,0.4790920348117271,0.5623541517693635
0.5267633816908454,0.4035526644983739,0.6987740805604205,0.0,0.5466818982506932,0.6807768107853567
0.4949974987493746,0.4896172129096824,0.7530647985989494,0.5005336867991,0.4941852555941189,0.5004883408619216
0.4947473736868433,0.4891168376282213,0.7528146109582188,0.500687165355704,0.4942323456058042,0.5018155815616443
0.4952476238119059,0.4898674005504129,0.7528146109582188,0.5005807768107854,0.4941399096569405,0.5005336867991
0.7541270635317658,0.3745308981736303,0.4828621466099576,0.2831923539773619,0.0,0.0863438966112632
0.108304152076038,0.4208156117087817,0.5311483612709533,0.2532971728552243,0.9939864311003366,0.5819488288539687
0.4954977488744371,0.490367775831874,0.7525644233174882,0.5006261227479638,0.4941852555941189,0.5005947294068402
0.4949974987493746,0.4898674005504129,0.7525644233174882,0.500763904634006,0.494171302998064,0.5004726441913598
0.546273136568284,0.4078058543907932,0.9096822616962724,0.860058949718332,0.5896715907703577,0.6336379650138654
0.7028514257128564,0.1918939204403303,0.2156617463097324,0.2040200917383191,0.3565498718105238,0.596157803861381
0.4952476238119059,0.4896172129096824,0.7528146109582188,0.5006261227479638,0.4942462982018591,0.5005336867991
0.2831415707853927,0.4470853139854892,0.5824368276207157,0.5861921621291661,0.0080122782845283,0.4413223572911035
0.4952476238119059,0.4898674005504129,0.7528146109582188,0.5005807768107854,0.494171302998064,0.5004883408619216
0.5945472736368184,0.2529397047785841,0.5531648736552415,1.0,0.5708861642569371,0.18572300608682
0.5617808904452225,0.1696272204153115,0.550662997247936,0.1370249577061932,0.3507211748085878,0.2721593386469469
0.4954977488744371,0.4896172129096824,0.7525644233174882,0.5006714686851422,0.4941556063275023,0.5005650801402236
0.5867933966983491,0.297222917187891,0.5416562421816363,0.0,0.52710291783665,0.4105725796606031
0.4952476238119059,0.4898674005504129,0.7528146109582188,0.500610426077402,0.4942009522646807,0.5005040375324834
0.4952476238119059,0.4893670252689518,0.7528146109582188,0.5005947294068402,0.4942009522646807,0.5004883408619216
0.4954977488744371,0.4898674005504129,0.7530647985989494,0.5007325112928824,0.4942323456058042,0.5004883408619216
0.3759379689844922,0.5654240680510384,0.7435576682511885,0.235640162547744,0.0,0.1473272058182326
0.6863431715857928,0.1285964473355016,0.38353765323993,0.3864293562620995,0.5016777996756021,0.5695432268866526
0.5232616308154077,0.3662747060295223,0.5283962972229173,0.0,0.3579224584474249,0.5039991628442367
0.8059029514757379,0.1731298473855392,0.9539654741055792,0.4785443954165722,0.3584735859915935,0.3322095679927446
0.5980490245122561,0.5226419814861147,0.6014510883162373,1.0,0.7477719448174825,0.5128346442960043
0.605552776388194,0.4248186139604705,0.6589942456842633,0.5023353157646895,0.4179430385266058,0.4324415299021574
0.4959979989994997,0.4893670252689518,0.7530647985989494,0.5005197342030452,0.4942009522646807,0.501374330711408
0.4944972486243121,0.4881160870652991,0.7528146109582188,0.5006418194185256,0.4941852555941189,0.5004883408619216
0.690345172586293,0.3607705779334502,0.4065549161871404,0.4437501090046566,0.51401015051363,0.5744562847724854
0.4949974987493746,0.4893670252689518,0.7525644233174882,0.5005947294068402,0.4942166489352425,0.5005197342030452
0.6823411705852925,0.257943457593195,0.7125344008006006,0.5274691734830912,0.3924882710989413,0.3721767793920156
0.5555277638819409,0.4195646735051289,0.8328746559919942,0.1923749062559952,1.0,0.7628494689293126
0.3119059529764882,0.2909682261696273,0.7075306479859896,0.7748295167169541,0.0,0.0714198510560371
0.4832416208104051,0.3455091318488867,0.6725043782837129,1.0,0.5160245565690567,0.4207056525454767
0.2626313156578289,0.5206404803602703,0.6017012759569678,0.3991419153426234,0.0,0.356610914418264
0.4954977488744371,0.4896172129096824,0.7530647985989494,0.5005807768107854,0.494171302998064,0.5005040375324834
0.3764382191095548,0.6322241681260947,0.774330748061046,0.3165373144740743,0.0,0.2289551249629384
0.4947473736868433,0.4891168376282213,0.7528146109582188,0.5007028620262658,0.4941399096569405,0.5004883408619216
0.3301650825412706,0.5869402051538656,0.7713284963722793,0.6183912656748696,0.0,0.3737028445855207
0.4952476238119059,0.4893670252689518,0.7525644233174882,0.5006418194185256,0.4942462982018591,0.5004569475207981
0.5660330165082541,0.4395796847635728,0.7793345008756569,0.0,0.6347663812198057,0.5562045450581649
0.512256128064032,0.5701776332249189,0.7295471603702779,0.8468597938503932,0.6009348239356785,0.5955002877722936
0.3769384692346172,0.4368276207155367,0.5171378533900426,0.554357570155397,0.0,0.3588084482969113
0.6163081540770384,0.3192394295721792,0.5489116837628222,0.0,0.7281005284545756,0.38960357186459
0.4947473736868433,0.4898674005504129,0.7525644233174882,0.5007325112928824,0.4942462982018591,0.5004726441913598
0.4952476238119059,0.4901175881911435,0.7530647985989494,0.5006714686851422,0.4942009522646807,0.5005807768107854
0.4952476238119059,0.490367775831874,0.7525644233174882,0.500610426077402,0.4941556063275023,0.5004726441913598
0.4954977488744371,0.4898674005504129,0.7525644233174882,0.5005947294068402,0.4941399096569405,0.5005197342030452
0.6965982991495747,0.3252439329497124,0.6867650738053541,0.5417531436942986,0.4531506705966479,0.4712489317543645
0.4952476238119059,0.4898674005504129,0.7523142356767576,0.5006418194185256,0.4942323456058042,0.5005807768107854
0.4954977488744371,0.4901175881911435,0.7528146109582188,0.5006714686851422,0.4941556063275023,0.5005040375324834
0.2776388194097048,0.4956217162872155,0.7060295221416063,0.5122695641557807,0.0,0.4177302614367686
0.2303651825912956,0.5594195646735053,0.684013009757318,0.2647574864398207,0.0,0.2265448139944538
0.4942471235617808,0.4883662747060296,0.7528146109582188,0.5006557720145804,0.4942619948724209,0.5004429949247432
0.4557278639319659,0.5479109331999,0.6514886164623469,0.6260686816540803,0.0,0.5693287057223084
0.5140070035017508,0.4573430072554417,0.7130347760820617,0.3988977449116626,0.4352948357953852,0.4619251094406753
0.2501250625312656,0.5391543657743308,0.5526644983737804,0.2463976141060746,0.0,0.176078274063868
0.5585292646323161,0.5306479859894923,0.6494871153365025,0.8831801454558139,0.5333606571672742,0.3941678148490504
0.4949974987493746,0.4891168376282213,0.7523142356767576,0.5007028620262658,0.4941556063275023,0.5004726441913598
0.8001500750375187,0.3214911183387542,0.6885163872904679,0.6829150461307707,0.5687793222526466,0.4791391248234125
0.2698849424712356,0.3722792094070554,0.5233925444083063,0.6651045572666864,0.2718070355965607,0.4094581160507177
0.2901450725362681,0.380785589191894,0.5313985489116838,0.4677398538465563,0.4357378307201284,0.4404834574533024
0.4732366183091545,0.4918689016762573,0.4836127095321492,0.5292394091075571,1.0,0.8623646162164047
0.6420710355177588,0.4678508881661247,0.8846634976232175,1.0,0.5669026980832621,0.4547377783978931
0.6220610305152575,0.3247435576682513,0.5936952714535904,0.0,0.615599002389382,0.7242705408375045
0.556528264132066,0.531898924193145,0.654741055791844,0.8339641069466488,0.0,0.2768596194429426
0.4949974987493746,0.4896172129096824,0.7533149862396799,0.5005650801402236,0.4942323456058042,0.5005040375324834
0.4952476238119059,0.4898674005504129,0.7525644233174882,0.5007168146223206,0.4941556063275023,0.5005336867991
0.5582791395697848,0.3930447835876909,0.6074555916937704,0.0,0.5336641261314683,0.4315869333937946
0.4237118559279639,0.3892919689767327,0.6117087815861897,0.2486422379964072,1.0,0.9972077367145123
0.4954977488744371,0.4896172129096824,0.7525644233174882,0.500610426077402,0.494171302998064,0.5005336867991
0.5057528764382191,0.3467600700525395,0.1606204653490117,1.0,0.4320752742557162,0.4829848091110452
0.0507753876938469,0.4025519139354517,0.557918438829122,0.7291086035195423,0.9245216875664928,0.6810977204946196
0.4639819909954977,0.3032274205654242,0.6012009006755068,0.0,0.4554842422868305,0.4718140118945881
0.072536268134067,0.469352014010508,0.651988991743808,0.1915830964298795,0.8565655684810854,0.6601461534436751
0.6453226613306653,0.5176382286715038,0.4400800600450338,0.5188778624622844,1.0,1.0
0.5562781390695347,0.4508381285964474,0.8643982987240432,0.9850288644330886,0.4404834574533024,0.4720424856549872
0.6155577788894446,0.4786089567175383,0.5213910432824619,0.3073041840347419,0.0,0.0
0.4944972486243121,0.4881160870652991,0.7525644233174882,0.500687165355704,0.4941399096569405,0.5004883408619216
0.5807903951975988,0.4115586690017514,0.6855141356017014,1.0,0.8576939846870258,0.7139089941922319
0.4952476238119059,0.4901175881911435,0.7530647985989494,0.5006261227479638,0.4941556063275023,0.5005493834696618
0.4957478739369684,0.4901175881911435,0.7523142356767576,0.5006261227479638,0.4942166489352425,0.5005040375324834
0.5137568784392196,0.4495871903927947,0.6830122591943959,0.322992134223974,0.6541779304811901,0.511871915168216
0.4952476238119059,0.4898674005504129,0.7530647985989494,0.5006261227479638,0.4941852555941189,0.5004726441913598
0.4957478739369684,0.4901175881911435,0.7528146109582188,0.5006714686851422,0.4942009522646807,0.5005336867991
0.749624812406203,0.2631973980485365,0.7963472604453341,0.6147147566144026,0.4112597450163071,0.425130369569388
0.4952476238119059,0.4898674005504129,0.7525644233174882,0.5006418194185256,0.4943073408095993,0.5005493834696618
0.6263131565782891,0.226920190142607,0.42006504878659,0.0247065594642203,0.5225247222561348,0.4084971309974362
0.523511755877939,0.5123842882161622,0.7350512884663498,0.6928632471179168,0.4704100319165635,0.4310515025201876
0.5280140070035017,0.1933950462847136,0.3840380285213911,0.9250553743655928,0.4017057048677119,0.5479794896837993
0.520760380190095,0.3517638228671504,0.6955216412309233,0.0,0.468913615989675,0.5591345902296946
0.484992496248124,0.5016262196647487,0.6462346760070053,0.6242217067513124,0.0,0.5350227601723145
0.2358679339669834,0.4298223667750814,0.6294721040780586,0.4916668120062089,1.0,0.6246647016760556
0.6068034017008503,0.3970477858393796,0.8553915436577435,0.9968100877269476,0.3918324990843609,0.3396567661370493
0.4527263631815907,0.5754315736802603,0.6920190142606957,0.8114393846905139,0.0,0.5705495578771125
0.7261130565282641,0.3089817363022268,0.6775081310983239,0.4724244379719902,0.0,0.3189476254425589
0.4432216108054027,0.3785339004253191,0.7075306479859896,0.5130631180564034,0.3900012208521548,0.57831766573068
0.72136068034017,0.3470102576932701,0.6332249186890169,0.6233357169018261,0.7842143816383835,0.6040776461970455
0.1280640320160079,0.5101325994495873,0.5419064298223669,0.4692048764323211,0.0,0.5269651359506078
0.4214607303651825,0.3495121341005756,0.69402051538654,1.0,0.0,0.3439593979454802
0.7263631815907954,0.3117338003502627,0.6089567175381537,0.775530634668713,0.8296614751382179,0.6520414392102831
0.4952476238119059,0.4896172129096824,0.7525644233174882,0.5006557720145804,0.4941852555941189,0.5005336867991
0.517008504252126,0.21916437327996,0.3505128846634977,0.0001674311526588,0.6051764131363692,0.5513978757172506
0.2611305652826413,0.5251438578934202,0.5989492119089318,0.5455988279819314,1.0,0.6326298899488987
0.4952476238119059,0.4893670252689518,0.7528146109582188,0.5005947294068402,0.4942323456058042,0.5005493834696618
0.6038019009504751,0.4325744308231175,0.6957718288716539,1.0,0.3082355198214068,0.3563057013795629
0.2858929464732366,0.4613460095071304,0.5749311983987992,0.5436751138008615,0.0,0.3482323804872944
0.5632816408204101,0.443332499374531,0.8093570177633227,0.3097144950032265,0.4584753300661004,0.4587195004970612
0.5032516258129064,0.4090567925944459,0.7140355266449838,0.0475975373667963,0.5519769084535291,0.5007935539006226
0.6520760380190094,0.5394045534150614,0.7498123592694522,0.0,0.6246647016760556,0.3868880478574045
0.6935967983991995,0.2094070552914687,0.4510883162371779,0.4388510037148787,0.498688455970839,0.482083122590997
0.4952476238119059,0.4901175881911435,0.7530647985989494,0.500610426077402,0.4941852555941189,0.5004726441913598
0.4949974987493746,0.4896172129096824,0.7530647985989494,0.5005807768107854,0.4942462982018591,0.5004569475207981
0.2991495747873937,0.673004753565174,0.8481361020765575,0.0,0.243071664021487,0.2348919545842998
0.4942471235617808,0.4893670252689518,0.7528146109582188,0.5007028620262658,0.4942323456058042,0.5004429949247432
0.834417208604302,0.294470853139855,0.6830122591943959,0.5678950764776671,0.0098435565167344,0.377808395974676
0.5782891445722861,0.3480110082561922,0.5769326995246435,1.0,0.705408375045782,0.3413345658126515
0.4942471235617808,0.4893670252689518,0.7530647985989494,0.5006261227479638,0.4942462982018591,0.5005040375324834
0.4959979989994997,0.490367775831874,0.7533149862396799,0.5007168146223206,0.4940492177825836,0.5037846416798926
0.5125062531265632,0.2694520890668002,0.4135601701275957,0.9969792629541132,0.6655789455325531,0.4264890036102342
0.4949974987493746,0.4896172129096824,0.7525644233174882,0.5007168146223206,0.4942619948724209,0.5005336867991
0.4954977488744371,0.4901175881911435,0.7528146109582188,0.5007028620262658,0.4942166489352425,0.5005807768107854
0.4944972486243121,0.4808606454841132,0.6454841130848137,0.0,0.2942567626489004,0.4544779112963706
0.5730365182591295,0.4060545409056794,0.7137853390042533,0.5216090831400317,0.5914575230653853,0.4760869944364023
0.5702851425712856,0.2214160620465349,0.404553415061296,0.666280063484312,0.4306555976071298,0.4732476411392294
0.4954977488744371,0.4901175881911435,0.7525644233174882,0.5007028620262658,0.4942166489352425,0.5005040375324834
0.4954977488744371,0.4898674005504129,0.7528146109582188,0.5007028620262658,0.4942166489352425,0.5005650801402236
0.5850425212606303,0.380785589191894,0.7600700525394046,0.5292847550447355,0.6282662155327275,0.5245234316409997
0.5117558779389695,0.370277708281211,0.7733299974981237,0.0227235467499171,0.3991419153426234,0.4803599769782165
0.4944972486243121,0.4891168376282213,0.7525644233174882,0.5007325112928824,0.4942462982018591,0.5005040375324834
0.4469734867433716,0.7045283962972231,0.5609206905178885,1.0,0.3426164605751958,0.8175279487939725
0.7076038019009504,0.1743807855891919,0.2486865148861646,0.2793763189563458,0.3856671957026004,0.6230915464708653
0.4952476238119059,0.4898674005504129,0.7528146109582188,0.500610426077402,0.4941852555941189,0.5004569475207981
0.4952476238119059,0.4898674005504129,0.7530647985989494,0.5006557720145804,0.4941242129863787,0.5005336867991
0.7143571785892946,0.3402551913935452,0.8056042031523645,0.3600293004517153,0.1603275371923888,0.3949910180162896
0.5880440220110055,0.1831373530147612,0.4135601701275957,1.0,0.3286830493398678,0.5738162094284668
0.4944972486243121,0.4883662747060296,0.7528146109582188,0.500838899837801,0.4941852555941189,0.5000906918743568
0.4767383691845922,0.5096322241681263,0.7222917187890919,0.0133369377539808,0.4021173064513316,0.4201405724052531
0.4954977488744371,0.4901175881911435,0.7530647985989494,0.5006557720145804,0.4941556063275023,0.5004272982541814
0.4949974987493746,0.4916187140355267,0.7528146109582188,0.5006261227479638,0.4941852555941189,0.4996023510124353
0.5755377688844422,0.2732049036777584,0.5233925444083063,0.2051799012853829,0.5521914296178733,0.4554999389573922
0.1945972986493246,0.5564173129847387,0.5979484613460097,0.6481504089854718,1.0,0.6731011388806529
0.6008004002001,0.3627720790592945,0.6449837378033526,0.5365034794286412,0.9958334060031044,0.4988558871234979
0.4952476238119059,0.4896172129096824,0.7525644233174882,0.5005947294068402,0.4941399096569405,0.5005040375324834
0.5780390195097548,0.3992994746059546,0.696272204153115,1.0,0.31273697612362,0.5166192859758969
0.0910455227613806,0.3907930948211159,0.5026269702276709,0.5430803843940213,0.2526850027033155,0.5370371662277412
0.5512756378189094,0.7120340255191395,0.6755066299724795,0.3952962310549907,1.0,0.4290527931353227
0.5600300150075037,0.435576682511884,0.6870152614460847,0.0,0.3942428100528454,0.6867136404067182
0.4954977488744371,0.4918689016762573,0.7528146109582188,0.5005197342030452,0.4945829045816837,0.4981390725011772
0.4952476238119059,0.4898674005504129,0.7530647985989494,0.5005947294068402,0.4941852555941189,0.5005336867991
0.5350175087543771,0.3362521891418565,0.552914686014511,0.0,0.4721488741999058,0.3134380940753789
0.4939969984992495,0.4883662747060296,0.7528146109582188,0.500838899837801,0.4940021277708983,0.5003976489875648
0.4879939969984992,0.2667000250187641,0.5293970477858395,0.0,0.5744562847724854,0.6192162129166158
0.4954977488744371,0.4898674005504129,0.7528146109582188,0.5006418194185256,0.4942009522646807,0.5005650801402236
0.4952476238119059,0.4898674005504129,0.7528146109582188,0.5005807768107854,0.494171302998064,0.5005040375324834
0.3821910955477738,0.4948711533650239,0.6087065298974231,0.3285766607949492,1.0,0.5976367790432007
0.4914957478739369,0.4843632724543409,0.49311983987991,0.5230287597886182,1.0,0.8433489718680782
0.625312656328164,0.3079809857393045,0.5826870152614462,1.0,0.5996215358320107,0.3596333955386574
0.2436218109054527,0.394045534150613,0.5389041781336003,0.6159199120986448,0.7434693130090517,0.5210893489369866
0.7723861930965481,0.1971478608956718,0.2189141856392294,0.0,0.6690112841620595,0.458429984128922
0.4954977488744371,0.4898674005504129,0.7525644233174882,0.500610426077402,0.4941242129863787,0.5005336867991
0.4952476238119059,0.4888666499874907,0.7523142356767576,0.500687165355704,0.4941399096569405,0.5004569475207981
0.4174587293646823,0.5328996747560671,0.678508881661246,0.4704553778537419,1.0,0.6915970490259343
0.5447723861930965,0.4558418814110584,0.7147860895671755,0.0,0.0909691822034637,0.389146624343792
0.4944972486243121,0.4878658994245685,0.7528146109582188,0.5006418194185256,0.4942462982018591,0.5005493834696618
0.4944972486243121,0.4883662747060296,0.7530647985989494,0.5006261227479638,0.4942323456058042,0.5005040375324834
0.1708354177088544,0.3980485364023018,0.5386539904928698,0.4453058234647784,0.1739557353890158,0.7025550691525542
0.4997498749374687,0.4901175881911435,0.7505629221916439,0.500763904634006,0.4945829045816837,0.4940021277708983
0.596048024012006,0.5436577433074807,0.7915936952714537,1.0,0.5506200184871898,0.4448331792734186
0.501000500250125,0.5103827870903179,0.7658243682762073,0.5014039799780247,0.4949631128241799,0.4904006139142264
0.2803901950975487,0.4886164623467602,0.6895171378533902,0.3374592322584021,1.0,0.4808483178401381
0.8479239619809904,0.3880410307730799,0.4425819364523393,0.5312084692258053,0.9903256187104312,0.9215602490538396
0.5767883941970985,0.2124093069802353,0.3309982486865149,0.0353436698815773,0.5088511781223294,0.5572422693897483
0.5512756378189094,0.2747060295221417,0.3827870903177384,1.0,0.2472539546889443,0.6644330885815442
0.4954977488744371,0.4898674005504129,0.7528146109582188,0.500687165355704,0.4941242129863787,0.5004726441913598
0.5087543771885943,0.2852139104328247,0.5834375781836378,0.776294539302719,0.5815843172820343,0.7449343355948166
0.7283641820910455,0.380785589191894,0.6119589692269203,0.0,0.0737080768090412,0.6183773130788147
0.7848924462231115,0.4175631723792846,0.8303727795846887,0.5570591415665277,6.104260774025816e-05,0.4861590247135358
0.1778389194597298,0.3637728296222168,0.6942707030272706,0.5316043741388632,0.9522489840765996,0.5296056647539983
0.4949974987493746,0.4898674005504129,0.7528146109582188,0.5007028620262658,0.494171302998064,0.5004429949247432
0.493496748374187,0.4891168376282213,0.7528146109582188,0.5005947294068402,0.4942619948724209,0.5004726441913598
0.2858929464732366,0.4575931948961722,0.4838628971728797,0.5850480492526641,1.0,0.6598095470638505
0.2981490745372686,0.4535901926444834,0.5901926444833626,0.509339518984251,0.0,0.2671521007377435
0.4289644822411205,0.5419064298223669,0.6582436827620717,0.2537384237054607,0.0,0.0040445087814152
0.4952476238119059,0.4898674005504129,0.7530647985989494,0.500610426077402,0.494171302998064,0.5005040375324834
0.368184092046023,0.3304978734050539,0.503127345509132,0.7352739069013028,0.0,0.3285470115283325
0.4319659829914957,0.5554165624218165,0.6334751063297475,0.4169663568027626,0.0,0.24398730313759
0.4944972486243121,0.4911183387540657,0.7528146109582188,0.5006714686851422,0.4942323456058042,0.5005197342030452
0.1108054027013506,0.3882912184138105,0.670252689517138,0.3361319915586794,0.999007621605595,0.6128067391038945
0.568784392196098,0.2004003002251689,0.4941205904428322,7.67392783019849e-05,0.4710204579939655,0.5457523065385353
0.5962981490745372,0.4776082061546161,0.7147860895671755,1.0,0.0,0.7523658370685595
0.2101050525262631,0.6219664748561422,0.8841631223417565,0.6078465912063763,0.0,0.3296754277342728
0.4954977488744371,0.4901175881911435,0.7528146109582188,0.500610426077402,0.494171302998064,0.5005336867991
0.4464732366183091,0.4568426319739806,0.5138854140605456,0.5348396323490939,1.0,0.8216631494497444
0.2116058029014507,0.5401551163372531,0.4358268701526145,0.5814465353959921,1.0,0.9891047665556272
0.7263631815907954,0.3592694520890669,0.7688266199649738,0.6143485009679613,0.0,0.4920034183860334
0.4954977488744371,0.4898674005504129,0.7530647985989494,0.5005807768107854,0.494171302998064,0.5005040375324834
0.6638319159579789,0.5459094320740556,0.8043532649487117,1.0,0.3683310951043829,0.3814395590979647
0.5120060030015007,0.4478358769076809,0.8541406054540908,0.1302806215881543,0.6773444721558505,0.4930707919842336
0.5420210105052525,0.4478358769076809,0.811358518889167,1.0,0.3734900674956834,0.5120410903953817
0.4952476238119059,0.2541906429822368,0.4883662747060296,1.0,0.1700490084936428,0.5499014597903622
0.2926463231615808,0.5659244433324995,0.7015261446084564,0.3464167989256501,0.0,0.2698536721488742
0.6028014007003502,0.5459094320740556,0.6579934951213411,0.7512513734586741,0.4453825627430804,0.2383417339588747
0.6478239119559779,0.2431823867900926,0.5679259444583439,0.999923260721698,0.6617018679037968,0.7259797338542302
0.0845422711355677,0.5121341005754317,0.5639229422066551,0.9747126637249944,1.0,0.8366499816872177
0.6050525262631314,0.4208156117087817,0.5188891668751564,0.123717669218829,0.0,0.0639883495822941
0.5060030015007503,0.4218163622717039,0.6532399299474607,0.0,0.4328531314857771,0.5109876693932365
0.5817908954477238,0.1110833124843633,0.5126344758568928,0.3315677485742191,0.5127579050177024,0.1861032143293161
0.3894447223611805,0.4475856892669503,0.5929447085313987,1.0,1.0,0.6956258611367878
0.2378689344672335,0.4320740555416563,0.7673254941205905,0.3337966757939899,1.0,0.6507752411183005
0.3204102051025512,0.5809357017763324,0.5826870152614462,0.4851213003819523,0.0,0.0424246123794408
0.5110055027513757,0.3652739554666,0.6099574681010759,0.0,0.422064286586323,0.3345902296946126
0.6493246623311655,0.3582687015261447,0.6677508131098325,0.2346320874827773,0.0,0.0213492160385091
0.6898449224612305,0.3985489116837629,0.4793595196397299,0.6965868461900693,0.9997104836318608,0.81075221933481
0.1150575287643821,0.3642732049036778,0.4691018263697774,0.5115527495334601,0.5618815075780037,0.7031201492927778
0.4949974987493746,0.4898674005504129,0.7530647985989494,0.5007168146223206,0.4942009522646807,0.5005040375324834
0.3619309654827413,0.5486614961220917,0.6649987490617965,0.1604967124195546,0.0,0.1129602176604984
0.5177588794397198,0.2929697272954717,0.4378283712784589,1.0,0.3696740324746673,0.6922074751033365
0.625312656328164,0.4480860645484114,0.7845884413309984,0.3192528384812599,1.0,0.6317909901110975
0.4952476238119059,0.4898674005504129,0.7525644233174882,0.5006418194185256,0.4942166489352425,0.5005040375324834
0.5055027513756878,0.4443332499374532,0.7140355266449838,1.0,0.637345867415456,0.4625355355180773
0.5630315157578789,0.3485113835376533,0.6567425569176883,1.0,0.4029736470342013,0.5299876170710013
0.5757878939469734,0.4143107330497874,0.4545909432074056,0.2547761480370441,0.0,0.1795577027050595
0.5757878939469734,0.2429321991493621,0.3860395296472355,0.0,0.559104940963078,0.5670544325653591
0.5120060030015007,0.3094821115836879,0.3540155116337253,0.539890472120969,0.5069745539529449,0.5592723721157368
0.3634317158579289,0.607705779334501,0.6307230422817114,0.0254844166942812,0.0,0.02962136142456
0.493496748374187,0.4898674005504129,0.7530647985989494,0.5006557720145804,0.494171302998064,0.5004726441913598
0.4944972486243121,0.4886164623467602,0.7523142356767576,0.5007028620262658,0.4941556063275023,0.5005197342030452
0.369184592296148,0.4796097072804605,0.6002001501125845,0.5535343669881577,0.0,0.3539407363482568
0.7808904452226112,0.4048036027020266,0.5596697523142358,0.4945218619739435,0.5262186720616705,0.5511537052862898
0.3051525762881441,0.5431573680260197,0.5554165624218165,0.6197498997157158,0.0,0.2479864659818267
0.4944972486243121,0.4893670252689518,0.7525644233174882,0.500687165355704,0.4942166489352425,0.5005650801402236
0.2431215607803902,0.4808606454841132,0.6464848636477359,0.535832010743499,0.0,0.5444547151054293
0.8366683341670835,0.2514385789342007,0.727795846885164,0.6182395311927725,0.205942061844882,0.6024608891291836
0.4954977488744371,0.4901175881911435,0.7528146109582188,0.500687165355704,0.494171302998064,0.500992378394405
0.4557278639319659,0.3760320240180136,0.973480110082562,1.0,0.3780525664056368,0.578089191970281
0.4952476238119059,0.4901175881911435,0.7528146109582188,0.5005807768107854,0.4942323456058042,0.5005807768107854
0.5175087543771886,0.3242431823867902,0.2559419564673506,0.0,0.9838237089488464,0.3341786281109929
0.597048524262131,0.5066299724793597,0.6895171378533902,0.36341803721855,1.0,0.5549993895739226
0.4937468734367183,0.4891168376282213,0.7528146109582188,0.500610426077402,0.4942166489352425,0.5005040375324834
0.3181590795397698,0.4458343757818365,0.6117087815861897,0.6727505799047735,0.0200376720093481,0.3470882676107923
0.5242621310655327,0.3842882161621217,0.6087065298974231,1.0,0.7021417234944277,0.4842667038735895
0.4952476238119059,0.4898674005504129,0.7530647985989494,0.5006261227479638,0.4942009522646807,0.5004272982541814
0.4952476238119059,0.4896172129096824,0.7528146109582188,0.5005947294068402,0.494171302998064,0.5004726441913598
0.3051525762881441,0.4465849387040281,0.6179634726044534,0.6247710902209742,0.4021643964630169,0.5209690077960131
0.4242121060530265,0.3770327745809358,0.5479109331999,0.542485654987181,1.0,0.5334060031044526
0.3864432216108053,0.2271703777833376,0.2892169126845134,0.9393393445768004,0.2835272162826796,0.7331827615675741
0.4947473736868433,0.4891168376282213,0.7525644233174882,0.5006418194185256,0.4942462982018591,0.5005493834696618
0.5417708854427213,0.4453340005003754,0.7875906930197649,0.8859270628041229,0.517381446535396,0.3537576085250362
0.7788894447223611,0.2822116587440582,0.5644233174881161,0.5947224305422327,0.6495090430263181,0.52005336867991
0.4952476238119059,0.487615711783838,0.7528146109582188,0.5005807768107854,0.4942462982018591,0.5004726441913598
0.5522761380690344,0.2651988991743809,0.3667750813109833,0.8688647819034829,0.3637372028533059,0.5183895216003628
0.2151075537768884,0.43832874655992,0.6189642231673756,0.5692380138479516,0.1923609536599403,0.4866613181715123
0.5927963981990995,0.4153114836127096,0.7525644233174882,0.4166925371051851,0.6307218724383905,0.4679822802030102
0.8649324662331165,0.2737052789592195,0.6760070052539405,0.6657306800146502,0.0957915482149397,0.4131677625268151
0.5487743871935967,0.4340755566675007,0.8834125594195648,0.998916929731238,0.4648237612710815,0.4279383295254373
0.4854927463731865,0.6800100075056293,1.0000000000000002,1.0,0.4987791478451959,0.4682735406456564
0.5672836418209104,0.4966224668501377,0.774330748061046,0.0786385754399427,0.6657306800146502,0.505204318328479
0.5610305152576287,0.2737052789592195,0.5158869151863898,0.0,0.5480108830249228,0.486830493398678
0.6048024012006002,0.360270202651989,0.7930948211158371,0.5177023562446588,0.4915150775241118,0.54570521652685
0.4944972486243121,0.4883662747060296,0.7525644233174882,0.5006714686851422,0.4942166489352425,0.5004569475207981
0.8519259629814906,0.3244933700275207,0.6537403052289218,0.5457662591345902,0.1675166123096779,0.5464237752236776
0.5205102551275638,0.6249687265449089,1.0000000000000002,0.9082372638959136,0.931555540052671,0.5686415403666044
0.4954977488744371,0.4898674005504129,0.7530647985989494,0.5006557720145804,0.4941242129863787,0.5005807768107854
0.4952476238119059,0.4896172129096824,0.7528146109582188,0.5006557720145804,0.494171302998064,0.5005336867991
0.6323161580790395,0.3214911183387542,0.4348261195896923,1.0,0.4014475818406962,0.593089976803809
0.4997498749374687,0.4691018263697775,0.6399799849887416,1.0,1.0,0.3796082808657586
0.4699849924962481,0.3665248936702527,0.4761070803102327,1.0,0.5426687828104017,0.3732458970647226
0.5127563781890945,0.380785589191894,0.6907680760570429,0.0,0.4428798158257321,0.744369255454593
0.5830415207603801,0.4020515386539906,0.6797598198648988,0.0,0.5454470934998343,0.7136491270907093
0.2431215607803902,0.6059544658493872,0.8061045784338254,0.3000697629802745,1.0,0.5789123951375202
0.4854927463731865,0.5156367275456594,0.6014510883162373,0.3529937038910302,1.0,0.4896681026213439
0.4957478739369684,0.4896172129096824,0.7528146109582188,0.500687165355704,0.4941556063275023,0.5005040375324834
0.6108054027013506,0.5218914185639231,0.5166374781085815,1.0,0.0148630029474859,0.6693478905418839
0.4954977488744371,0.4898674005504129,0.7530647985989494,0.5007028620262658,0.4941556063275023,0.5005197342030452
0.5242621310655327,0.4645984488366276,0.6925193895421567,0.1479219352250728,0.4885850323525821,0.499923260721698
0.6233116558279139,0.2702026519889918,0.47485614210658,1.0,0.5392503967769503,0.536519176099203
0.5585292646323161,0.4503377533149864,0.8038528896672505,0.8082651690880234,0.5144514013638662,0.6519960932731046
0.4954977488744371,0.4898674005504129,0.7528146109582188,0.5006714686851422,0.4942619948724209,0.5005807768107854
0.4949974987493746,0.4898674005504129,0.7523142356767576,0.5006714686851422,0.4941852555941189,0.5004429949247432
0.4847423711855927,0.43832874655992,0.751063297473105,0.0,0.5355424943753597,0.5251199051223469
0.2588794397198599,0.4215661746309733,0.5208906680010008,0.5379528053438443,0.331110801053421,0.4637406910023196
0.5495247623811905,0.4285714285714287,0.6544908681511135,0.5371592514432216,0.6555679578631599,0.3119887681601758
0.6128064032016007,0.3297473104828622,0.5208906680010008,1.0,0.4384987006644923,0.5975460871688438
0.4952476238119059,0.4898674005504129,0.7525644233174882,0.5005807768107854,0.4942323456058042,0.5004883408619216
0.5365182591295647,0.4325744308231175,0.8651488616462348,1.0,0.7123061897204248,0.4632227008737813
0.5937968984492246,0.3767825869402053,0.6662496872654492,1.0,0.3680869246734221,0.5492317351797269
0.6730865432716358,0.3350012509382037,0.5936952714535904,0.5408985471859358,0.9914836841829884,0.5173971432059578
0.4997498749374687,0.3277458093570179,0.5198899174380787,1.0,0.5521303870101331,0.4595444477388074
0.5832916458229114,0.3662747060295223,0.6880160120090069,0.638338245809861,1.0,0.484768997331566
0.4137068534267133,0.5238929196897675,0.7132849637227923,0.4277255524356,1.0,0.5283848125991942
0.5937968984492246,0.2174130597948462,0.3972979734801101,0.0,0.1778624622843888,0.6245879623977536
0.785392696348174,0.3720290217663248,0.4273204903677759,0.5673613896785671,0.932547918447076,0.8447233025794862
0.481240620310155,0.2379284463347511,0.3340005003752815,0.1004761323403736,0.4062071611699251,0.6184383556865549
0.4909954977488744,0.1473605203902928,0.5043782837127847,0.9877757817813976,0.3325897762352408,0.6489125695449709
0.4919959979989994,0.4888666499874907,0.7540655491618715,0.5005807768107854,0.4942009522646807,0.5004726441913598
0.8846923461730865,0.2186639979984989,0.6029522141606205,0.5199295393899227,0.6748870711756806,0.5216701257477719
0.4952476238119059,0.4898674005504129,0.7530647985989494,0.5006557720145804,0.494171302998064,0.5005650801402236
0.7978989494747373,0.4208156117087817,0.3705278959219415,0.3894814866491096,0.9575300416833809,0.9104958403823012
0.4952476238119059,0.4898674005504129,0.7528146109582188,0.5007325112928824,0.4941852555941189,0.5005197342030452
0.0,0.1115836877658244,0.5313985489116838,0.6810820238240578,0.3206411217887228,0.4748504456110365
0.2786393196598299,0.3660245183887917,0.6002001501125845,0.4138985297451907,1.0,0.6007656487085128
0.5167583791895948,0.4073054791093321,0.7215411558669003,0.266344594241066,0.5941277011353925,0.5541604897361215
0.4842421210605302,0.4603452589442083,0.665248936702527,0.0,0.4812913127648813,0.4900500549383469
0.5597798899449724,0.2251688766574932,0.4083062296722543,0.0,0.7996581613966549,0.4343181540715419
0.6218109054527263,0.4295721791343508,0.8311233425068802,1.0,0.5346722011964351,0.4440849713099744
0.6613306653326663,0.3430072554415813,0.816362271703778,0.6420147548703281,0.2891902262064635,0.531848544569824
0.4952476238119059,0.4896172129096824,0.7525644233174882,0.5006418194185256,0.4942009522646807,0.5005197342030452
0.3219109554777388,0.4688516387290469,0.5706780085063798,0.4887838568463645,1.0,0.5320473690636064
0.0617808904452226,0.4260695521641232,0.826870152614461,0.5931056734743708,1.0,0.544866316689049
0.6198099049524761,0.5709281961471104,0.3527645734300726,1.0,0.9276034672201195,0.9177145647662068
0.2438719359679839,0.4320740555416563,0.6594946209657244,0.6155536564522036,0.0,0.3138810890001221
0.4317158579289644,0.516387290467851,0.589942456842632,0.5921132950799658,0.0,0.5056769625198388
0.5202601300650325,0.1863897923442583,0.4660995746810108,0.0,0.5327502310898722,0.6611071384969566
0.6218109054527263,1.0000000000000002,1.0000000000000002,1.0,0.0692223171773898,0.3060676352093762
0.4982491245622811,0.3750312734550914,0.8266199649737305,1.0,0.5366552139107382,0.6701710937091232
0.5507753876938468,0.3495121341005756,0.7215411558669003,0.0,0.6516455342972252,0.4806181000052322
0.4944972486243121,0.4893670252689518,0.7530647985989494,0.5007028620262658,0.4942009522646807,0.5005493834696618
0.4949974987493746,0.4901175881911435,0.7533149862396799,0.5006557720145804,0.4942323456058042,0.5004726441913598
0.5277638819409705,0.5101325994495873,0.8986740055041282,0.000305213038701,0.8042520536477318,0.4995727017458186
0.4954977488744371,0.4881160870652991,0.7520640480360272,0.5006714686851422,0.4941852555941189,0.5004883408619216
0.4952476238119059,0.4896172129096824,0.7530647985989494,0.5005807768107854,0.4942166489352425,0.5004726441913598
0.7766383191595797,0.3605203902927196,0.659744808606455,0.3468144479132148,0.0,0.1817081465720215
0.4952476238119059,0.487615711783838,0.7528146109582188,0.5005807768107854,0.4941399096569405,0.5005197342030452
0.4944972486243121,0.4886164623467602,0.7528146109582188,0.5006557720145804,0.4942462982018591,0.5004726441913598
0.4942471235617808,0.4888666499874907,0.7525644233174882,0.5006418194185256,0.4942009522646807,0.5005336867991
0.4942471235617808,0.4888666499874907,0.7528146109582188,0.5006418194185256,0.494171302998064,0.5004726441913598
0.6370685342671335,0.4310733049787342,0.5476607455591694,0.3391370319340042,0.0,0.2125189668102621
0.4979989994997498,0.2434325744308232,0.0740555416562422,0.0,0.4889669846695851,0.6977327031410782
0.576288144072036,0.3825369026770079,0.8341255941956469,1.0,0.457360866456215,0.4829534157699217
0.2893946973486743,0.4913685263947962,0.6810107580685515,0.2104906081587805,1.0,0.704415996651377
0.1260630315157578,0.4220665499124344,0.6179634726044534,0.2556621378865305,0.9866630622460192,0.5902209742400195
0.6293146573286643,0.3027270452839631,0.568926695021266,0.0,0.2309241850811866,0.5792176081762213
0.4952476238119059,0.487615711783838,0.7523142356767576,0.5005947294068402,0.4941852555941189,0.5005336867991
0.4589794897448724,0.4530898173630224,0.7040280210157619,1.0,0.9629314404311352,0.389375098104191
0.7681340670335166,0.3865399049286966,0.8471353515136353,0.7051799012853829,0.4203690461656522,0.3880182081378516
0.8769384692346172,0.3029772329246936,0.7635726795096324,0.5174128398765195,0.0,0.2939498055356925
0.4299649824912456,0.4260695521641232,0.6777583187390543,0.4722709594153862,0.4086959554912186,0.4866613181715123
0.0397698849424712,0.2224168126094571,0.5494120590442833,0.6081221549784607,0.7836963915098454,0.3108586078797286
0.4952476238119059,0.4901175881911435,0.7528146109582188,0.5006557720145804,0.4941399096569405,0.5005650801402236
0.5707853926963481,0.4958719039279461,0.6289717287965976,0.5623541517693635,0.0,0.3612187592653958
0.4939969984992495,0.4886164623467602,0.7528146109582188,0.5007168146223206,0.4942009522646807,0.5005197342030452
0.4954977488744371,0.4898674005504129,0.7530647985989494,0.5006557720145804,0.4942166489352425,0.5004883408619216
0.4952476238119059,0.4898674005504129,0.7528146109582188,0.500687165355704,0.4942323456058042,0.5004883408619216
0.6325662831415707,0.6079559669752316,0.7895921941456093,1.0,0.5217922109632523,0.4247187679857683
0.4952476238119059,0.4896172129096824,0.7528146109582188,0.500610426077402,0.4942323456058042,0.5004569475207981
0.5252626313156578,0.4886164623467602,0.9559669752314236,0.0055548773043584,0.569893785862532,0.5540384045206411
0.1310655327663831,0.4263197398048537,0.6147110332749564,0.692008650609554,0.5640493921900344,0.6200708094249786
0.295647823911956,0.4090567925944459,0.5371528646484864,0.4379039712576521,0.9612379440849712,0.4827563353506461
0.4377188594297148,0.5096322241681263,0.6177132849637229,0.5213945619756876,1.0,0.5854596508362837
0.4424712356178089,0.5596697523142358,0.7665749311983989,0.4803442803076547,0.0,0.1795873519716762
0.4952476238119059,0.4886164623467602,0.7528146109582188,0.5006557720145804,0.4942619948724209,0.500151734482097
0.3376688344172086,0.4801100825619215,0.5539154365774331,0.7031654952299562,1.0,0.5896715907703577
0.712856428214107,0.3812859644733551,0.5591693770327747,0.5526030312014929,0.9156705094441636,0.7180738441146206
0.4944972486243121,0.4888666499874907,0.7528146109582188,0.5007028620262658,0.4941556063275023,0.5005336867991
0.0027513756878439,0.4938704028021017,0.7518138603952966,0.5915482149397422,0.0127422083471405,0.5643546052287354
0.0340170085042521,0.3850387790843133,0.5389041781336003,0.2981320962031498,0.7305736261053072,0.7036991820290562
0.3579289644822411,0.4165624218163624,0.4701025769326996,0.6897204248565498,0.0145891832499084,0.5418595322392172
0.4954977488744371,0.4901175881911435,0.7528146109582188,0.5006418194185256,0.494171302998064,0.5007935539006226
0.5890445222611305,0.2529397047785841,0.4838628971728797,0.0845893576573591,0.6601914993808535,0.4428937684217869
1.0,0.2104078058543909,0.8776582436827622,0.504745626733174,0.0,0.3986535744807018
0.7436218109054527,0.4088066049537154,0.5969477107830874,0.6738040009069187,1.0,0.8801733610059821
0.4954977488744371,0.4896172129096824,0.7528146109582188,0.5006557720145804,0.4942166489352425,0.5004883408619216
0.4952476238119059,0.4898674005504129,0.7528146109582188,0.5005493834696618,0.4941852555941189,0.5004883408619216
0.5630315157578789,0.4781085814360772,0.9061796347260448,1.0,0.0994070146676666,0.5068821180040811
0.4939969984992495,0.4893670252689518,0.7528146109582188,0.5006261227479638,0.4942462982018591,0.5004569475207981
0.477488744372186,0.4801100825619215,0.6682511883912936,0.4704850271203586,1.0,0.5122242182186023
0.5522761380690344,0.5251438578934202,0.7578183637728297,0.0017248896872874,0.5345187226398311,0.4937126114027591
0.4952476238119059,0.4898674005504129,0.7530647985989494,0.5007168146223206,0.4942166489352425,0.5004569475207981
0.4472236118059029,0.3482611958969228,0.4751063297473106,0.0,0.4302893419606886,0.6121195737481905
0.2508754377188594,0.414560920690518,0.5334000500375282,0.5739069013028236,0.2368453180319863,0.3170256553359959
0.532016008004002,0.5439079309482113,0.2887165374030523,0.641481068071228,1.0,1.0
0.1345672836418209,0.4188141105829373,0.3777833375031274,0.4344855852242008,0.0757992221427699,0.715586793867834
0.4232116058029014,0.602201651238429,0.4991243432574431,0.4024242635645395,1.0,0.67668870014127
0.8496748374187093,0.2992244183137353,0.7408056042031524,0.4811831801454558,0.0742121143415247,0.3315537959781642
0.3176588294147073,0.5486614961220917,0.6925193895421567,0.3879711181261663,0.0,0.093791094755568
0.584792396198099,0.3269952464348262,0.8188641481110834,1.0,0.1495247396968798,0.4607949491602281
0.6420710355177588,0.3432574430823119,0.7543157368026021,0.3700402881211085,0.0,0.2492980100109876
0.4949974987493746,0.4888666499874907,0.7518138603952966,0.5006261227479638,0.4942323456058042,0.5004883408619216
0.7776388194097048,0.257943457593195,0.6942707030272706,0.5450337478417078,0.2959188656539407,0.3894361407119312
0.5835417708854427,0.6454841130848138,0.873405053790343,0.0,0.154102935277395,0.3625634407101871
0.5827913956978489,0.378033525143858,0.6507380535401552,0.5159478172907547,0.0,0.7022498561138532
0.4949974987493746,0.4891168376282213,0.7528146109582188,0.5007028620262658,0.4942166489352425,0.5005040375324834
0.606553276638319,0.1841381035776834,0.3552664498373781,1.0,0.2582555766782357,0.3514676386975252
0.4592296148074036,0.2171628721541156,0.2874655991993996,0.0,0.9210265622547396,0.400012208521548
0.4954977488744371,0.4901175881911435,0.7528146109582188,0.5006261227479638,0.4941556063275023,0.5004569475207981
0.5870435217608804,0.4590943207405555,0.6614961220915688,1.0,0.4434902419031341,0.4939253884925964
0.493496748374187,0.5073805354015513,0.6437327995996999,1.0,1.0,0.7220276610216788
0.4927463731865932,0.3997998498874157,0.7280460345258946,0.0,0.5615152519315625,0.3320874827772643
0.5360180090045021,0.3319989992494372,0.6725043782837129,0.0,0.6952299562237299,0.5003662556464412
0.4954977488744371,0.4898674005504129,0.7528146109582188,0.5006557720145804,0.4941556063275023,0.5005947294068402
0.5465232616308153,0.3089817363022268,0.6204653490117589,0.0,0.5623245025027469,0.4961229223712437
