Ax,Ay,Az,Gx,Gy,Gz,Label
0.49574787393696845,0.4901175881911435,0.7525644233174882,0.5006418194185256,0.49418525559411897,0.5005650801402236,0
0.49499749874937465,0.4906179634726046,0.7530647985989494,0.5007325112928824,0.49412421298637876,0.5005336867991,0
0.49549774887443715,0.490367775831874,0.7525644233174882,0.500687165355704,0.49418525559411897,0.5004883408619216,0
0.49549774887443715,0.4896172129096824,0.7530647985989494,0.5006557720145804,0.49412421298637876,0.5005040375324834,0
0.49549774887443715,0.4901175881911435,0.7528146109582188,0.5005336867991,0.49420095226468075,0.5004726441913598,0
0.4952476238119059,0.490367775831874,0.7525644233174882,0.5006557720145804,0.49418525559411897,0.5005493834696618,0
0.49549774887443715,0.48986740055041295,0.7530647985989494,0.5006557720145804,0.49415560632750233,0.5005197342030452,0
0.49549774887443715,0.4896172129096824,0.7528146109582188,0.5005650801402236,0.49413990965694055,0.5005650801402236,0
0.49499749874937465,0.490367775831874,0.7523142356767576,0.5005947294068402,0.49421664893524253,0.5004883408619216,0
0.49549774887443715,0.4906179634726046,0.7528146109582188,0.5005947294068402,0.49417130299806405,0.5005040375324834,0
0.49549774887443715,0.48986740055041295,0.7523142356767576,0.5006261227479638,0.49421664893524253,0.5005493834696618,0
0.49549774887443715,0.48986740055041295,0.7530647985989494,0.500687165355704,0.49418525559411897,0.5004726441913598,0
0.49549774887443715,0.4901175881911435,0.7525644233174882,0.5006714686851422,0.49421664893524253,0.5004429949247432,0
0.49499749874937465,0.490367775831874,0.7528146109582188,0.5006418194185256,0.49415560632750233,0.5005336867991,0
0.4952476238119059,0.4896172129096824,0.7530647985989494,0.500687165355704,0.49421664893524253,0.5004883408619216,0
0.49549774887443715,0.4896172129096824,0.7530647985989494,0.500610426077402,0.49407886704920034,0.5005336867991,0
0.49549774887443715,0.490367775831874,0.7525644233174882,0.5005336867991,0.49415560632750233,0.5005040375324834,0
0.49549774887443715,0.4901175881911435,0.7528146109582188,0.5005650801402236,0.49415560632750233,0.5005197342030452,0
0.49549774887443715,0.4901175881911435,0.7525644233174882,0.5006261227479638,0.49415560632750233,0.5005650801402236,0
0.4952476238119059,0.48986740055041295,0.7528146109582188,0.5005947294068402,0.49420095226468075,0.5004883408619216,0
0.49549774887443715,0.490367775831874,0.7528146109582188,0.500687165355704,0.49418525559411897,0.5005336867991,0
0.4952476238119059,0.4901175881911435,0.7530647985989494,0.5006261227479638,0.49413990965694055,0.5004883408619216,0
0.4952476238119059,0.48986740055041295,0.7528146109582188,0.5005493834696618,0.49412421298637876,0.5005807768107854,0
0.4952476238119059,0.4896172129096824,0.7530647985989494,0.5005807768107854,0.49421664893524253,0.5005650801402236,0
0.4952476238119059,0.4901175881911435,0.7528146109582188,0.5005807768107854,0.49420095226468075,0.5005197342030452,0
0.4952476238119059,0.4901175881911435,0.7533149862396799,0.5005947294068402,0.49421664893524253,0.5004569475207981,0
0.49549774887443715,0.48986740055041295,0.7530647985989494,0.5005807768107854,0.49417130299806405,0.5004883408619216,0
0.4952476238119059,0.4901175881911435,0.7528146109582188,0.5007028620262658,0.49420095226468075,0.5005493834696618,0
0.49549774887443715,0.490367775831874,0.7528146109582188,0.5005807768107854,0.49417130299806405,0.5005493834696618,0
0.4952476238119059,0.4901175881911435,0.7525644233174882,0.5006557720145804,0.49420095226468075,0.5005040375324834,0
0.49549774887443715,0.48986740055041295,0.7528146109582188,0.5005807768107854,0.49417130299806405,0.5005040375324834,0
0.49499749874937465,0.4901175881911435,0.7528146109582188,0.5006261227479638,0.49424629820185917,0.5005336867991,0
0.4952476238119059,0.4901175881911435,0.7525644233174882,0.5006714686851422,0.49417130299806405,0.5005197342030452,0
0.4952476238119059,0.48986740055041295,0.7533149862396799,0.5006714686851422,0.49420095226468075,0.5005336867991,0
0.49549774887443715,0.4901175881911435,0.7528146109582188,0.5007482079634442,0.49417130299806405,0.5005197342030452,0
0.49549774887443715,0.48986740055041295,0.7528146109582188,0.5005807768107854,0.49415560632750233,0.5005650801402236,0
0.49549774887443715,0.4901175881911435,0.7528146109582188,0.500687165355704,0.49418525559411897,0.5005336867991,0
0.4952476238119059,0.48986740055041295,0.7530647985989494,0.5005807768107854,0.49417130299806405,0.5005040375324834,0
0.49549774887443715,0.4901175881911435,0.7528146109582188,0.5005947294068402,0.49424629820185917,0.5005336867991,0
0.4952476238119059,0.48986740055041295,0.7528146109582188,0.500687165355704,0.49420095226468075,0.5005197342030452,0
0.49549774887443715,0.4901175881911435,0.7523142356767576,0.5005947294068402,0.49415560632750233,0.5005040375324834,0
0.4952476238119059,0.48986740055041295,0.7530647985989494,0.500687165355704,0.49424629820185917,0.5005040375324834,0
0.49549774887443715,0.48986740055041295,0.7525644233174882,0.5006418194185256,0.49412421298637876,0.5004883408619216,0
0.4952476238119059,0.4901175881911435,0.7528146109582188,0.5006714686851422,0.49417130299806405,0.5004726441913598,0
0.49549774887443715,0.490367775831874,0.7525644233174882,0.5006557720145804,0.49421664893524253,0.5004272982541814,0
0.49549774887443715,0.4901175881911435,0.7528146109582188,0.5006714686851422,0.49420095226468075,0.5005197342030452,0
0.49574787393696845,0.48986740055041295,0.7528146109582188,0.5006557720145804,0.49412421298637876,0.5004883408619216,0
0.4952476238119059,0.4901175881911435,0.7530647985989494,0.5006557720145804,0.49410851631581704,0.5004726441913598,0
0.4952476238119059,0.490367775831874,0.7525644233174882,0.5006557720145804,0.49417130299806405,0.5005336867991,0
0.49549774887443715,0.4901175881911435,0.7525644233174882,0.5005947294068402,0.49423234560580426,0.5005197342030452,0
0.4952476238119059,0.490367775831874,0.7528146109582188,0.5005336867991,0.49415560632750233,0.5005197342030452,0
0.4952476238119059,0.48986740055041295,0.7525644233174882,0.500687165355704,0.49426199487242095,0.5004569475207981,0
0.49574787393696845,0.490367775831874,0.7523142356767576,0.5006261227479638,0.49429164413903764,0.5005040375324834,0
0.49549774887443715,0.48986740055041295,0.7528146109582188,0.5006418194185256,0.49418525559411897,0.5005040375324834,0
0.4952476238119059,0.48986740055041295,0.7523142356767576,0.5006714686851422,0.49413990965694055,0.5004883408619216,0
0.4952476238119059,0.4901175881911435,0.7528146109582188,0.5007028620262658,0.49410851631581704,0.5005650801402236,0
0.4952476238119059,0.4901175881911435,0.7530647985989494,0.5006714686851422,0.49412421298637876,0.5004883408619216,0
0.49549774887443715,0.48986740055041295,0.7525644233174882,0.500610426077402,0.49415560632750233,0.5004883408619216,0
0.4952476238119059,0.4901175881911435,0.7528146109582188,0.500687165355704,0.49417130299806405,0.5005040375324834,0
0.49549774887443715,0.4901175881911435,0.7528146109582188,0.5007482079634442,0.49407886704920034,0.5005197342030452,0
0.49549774887443715,0.4901175881911435,0.7528146109582188,0.5006714686851422,0.49410851631581704,0.5005336867991,0
0.4952476238119059,0.4901175881911435,0.7530647985989494,0.5006714686851422,0.49423234560580426,0.5005650801402236,0
0.49499749874937465,0.48986740055041295,0.7528146109582188,0.5006557720145804,0.49420095226468075,0.5005040375324834,0
0.49549774887443715,0.4901175881911435,0.7530647985989494,0.5006261227479638,0.49415560632750233,0.5005947294068402,0
0.49549774887443715,0.4901175881911435,0.7528146109582188,0.5007482079634442,0.49420095226468075,0.5004726441913598,0
0.4952476238119059,0.4901175881911435,0.7530647985989494,0.5006261227479638,0.49415560632750233,0.5005493834696618,0
0.49549774887443715,0.4901175881911435,0.7528146109582188,0.5005807768107854,0.49421664893524253,0.5005493834696618,0
0.49549774887443715,0.48986740055041295,0.7528146109582188,0.5006557720145804,0.49418525559411897,0.5005650801402236,0
0.49549774887443715,0.4901175881911435,0.7528146109582188,0.5006418194185256,0.49423234560580426,0.5004569475207981,0
0.4952476238119059,0.4901175881911435,0.7528146109582188,0.5005807768107854,0.49417130299806405,0.5005947294068402,0
0.49549774887443715,0.4901175881911435,0.7525644233174882,0.5006418194185256,0.49418525559411897,0.5005040375324834,0
0.49549774887443715,0.48986740055041295,0.7528146109582188,0.5006261227479638,0.49417130299806405,0.5004726441913598,0
0.49549774887443715,0.48986740055041295,0.7525644233174882,0.5005336867991,0.49410851631581704,0.5005650801402236,0
0.49549774887443715,0.4901175881911435,0.7528146109582188,0.5006557720145804,0.49413990965694055,0.5005197342030452,0
0.4952476238119059,0.48986740055041295,0.7528146109582188,0.5007028620262658,0.49418525559411897,0.5005650801402236,0
0.49549774887443715,0.48986740055041295,0.7525644233174882,0.5006714686851422,0.49417130299806405,0.5005336867991,0
0.49549774887443715,0.490367775831874,0.7530647985989494,0.5007028620262658,0.49418525559411897,0.5005197342030452,0
0.4952476238119059,0.4901175881911435,0.7528146109582188,0.5006714686851422,0.49420095226468075,0.5005807768107854,0
0.49549774887443715,0.4901175881911435,0.7530647985989494,0.5005947294068402,0.49420095226468075,0.5005336867991,0
0.49549774887443715,0.48986740055041295,0.7528146109582188,0.500610426077402,0.49413990965694055,0.5006418194185256,0
0.4952476238119059,0.4901175881911435,0.7528146109582188,0.500610426077402,0.49417130299806405,0.5005947294068402,0
0.4952476238119059,0.490367775831874,0.7528146109582188,0.5005947294068402,0.49420095226468075,0.5005650801402236,0
0.49549774887443715,0.4901175881911435,0.7525644233174882,0.5005493834696618,0.49413990965694055,0.5005040375324834,0
0.49549774887443715,0.4901175881911435,0.7528146109582188,0.5005947294068402,0.49417130299806405,0.5005197342030452,0
0.4952476238119059,0.4901175881911435,0.7528146109582188,0.5005807768107854,0.49418525559411897,0.5005197342030452,0
0.4952476238119059,0.48986740055041295,0.7525644233174882,0.5005040375324834,0.49424629820185917,0.5005807768107854,0
0.4952476238119059,0.4901175881911435,0.7530647985989494,0.5006714686851422,0.49413990965694055,0.5005040375324834,0
0.49549774887443715,0.48986740055041295,0.7528146109582188,0.5006261227479638,0.49415560632750233,0.5005336867991,0
0.49549774887443715,0.4901175881911435,0.7528146109582188,0.5005650801402236,0.49424629820185917,0.5005650801402236,0
0.49549774887443715,0.4901175881911435,0.7525644233174882,0.5006261227479638,0.4940945637197621,0.5005336867991,0
0.49549774887443715,0.48986740055041295,0.7525644233174882,0.5006418194185256,0.49423234560580426,0.5005650801402236,0
0.4952476238119059,0.48986740055041295,0.7525644233174882,0.5007028620262658,0.49418525559411897,0.5005197342030452,0
0.4952476238119059,0.48986740055041295,0.7528146109582188,0.5005807768107854,0.49412421298637876,0.5005197342030452,0
0.49549774887443715,0.4901175881911435,0.7528146109582188,0.5005947294068402,0.49420095226468075,0.5004726441913598,0
0.49549774887443715,0.4901175881911435,0.7528146109582188,0.5005807768107854,0.49424629820185917,0.5005493834696618,0
0.49574787393696845,0.4901175881911435,0.7528146109582188,0.5006261227479638,0.49415560632750233,0.5005493834696618,0
0.49549774887443715,0.4901175881911435,0.7528146109582188,0.5006418194185256,0.49424629820185917,0.5005197342030452,0
0.49549774887443715,0.48986740055041295,0.7528146109582188,0.5006714686851422,0.49418525559411897,0.5005197342030452,0
0.49574787393696845,0.4901175881911435,0.7528146109582188,0.5005947294068402,0.49424629820185917,0.5005040375324834,0
0.49549774887443715,0.4901175881911435,0.7528146109582188,0.5006261227479638,0.49423234560580426,0.5005040375324834,0
0.4952476238119059,0.4901175881911435,0.7530647985989494,0.5006261227479638,0.49415560632750233,0.5005040375324834,0
0.49549774887443715,0.4901175881911435,0.7525644233174882,0.500610426077402,0.49424629820185917,0.5005197342030452,0
0.49549774887443715,0.4901175881911435,0.7528146109582188,0.5006418194185256,0.49415560632750233,0.5005040375324834,0
0.49549774887443715,0.48986740055041295,0.7525644233174882,0.5006418194185256,0.49413990965694055,0.5005336867991,0
0.49549774887443715,0.4901175881911435,0.7528146109582188,0.5007028620262658,0.49413990965694055,0.5004726441913598,0
0.49549774887443715,0.4901175881911435,0.7530647985989494,0.5006557720145804,0.49412421298637876,0.5004883408619216,0
0.49549774887443715,0.4901175881911435,0.7528146109582188,0.5007168146223206,0.49417130299806405,0.5005040375324834,0
0.49549774887443715,0.48986740055041295,0.7530647985989494,0.5006418194185256,0.49424629820185917,0.5005947294068402,0
0.4952476238119059,0.4901175881911435,0.7525644233174882,0.500687165355704,0.49413990965694055,0.5004429949247432,0
0.49549774887443715,0.4901175881911435,0.7525644233174882,0.5005947294068402,0.49420095226468075,0.5005807768107854,0
0.4952476238119059,0.48986740055041295,0.7525644233174882,0.500610426077402,0.49418525559411897,0.5005493834696618,0
0.49549774887443715,0.4901175881911435,0.7528146109582188,0.5006261227479638,0.49427769154298273,0.5005493834696618,0
0.49549774887443715,0.48986740055041295,0.7530647985989494,0.5006261227479638,0.49412421298637876,0.5004569475207981,0
0.49549774887443715,0.48986740055041295,0.7530647985989494,0.5006557720145804,0.49421664893524253,0.5004883408619216,0
0.49549774887443715,0.4901175881911435,0.7528146109582188,0.500687165355704,0.49417130299806405,0.5005336867991,0
0.4952476238119059,0.4901175881911435,0.7530647985989494,0.5006261227479638,0.49413990965694055,0.5005197342030452,0
0.4952476238119059,0.48986740055041295,0.7528146109582188,0.5006418194185256,0.49417130299806405,0.5005650801402236,0
0.49574787393696845,0.4901175881911435,0.7528146109582188,0.5006714686851422,0.49420095226468075,0.5005336867991,0
0.49549774887443715,0.48986740055041295,0.7530647985989494,0.500610426077402,0.49423234560580426,0.5004429949247432,0
0.49574787393696845,0.4901175881911435,0.7528146109582188,0.5005947294068402,0.49415560632750233,0.5005650801402236,0
0.4952476238119059,0.4901175881911435,0.7530647985989494,0.5005947294068402,0.49415560632750233,0.5005040375324834,0
0.4952476238119059,0.4901175881911435,0.7528146109582188,0.5006557720145804,0.49421664893524253,0.5005493834696618,0
0.49549774887443715,0.4901175881911435,0.7528146109582188,0.5006714686851422,0.49420095226468075,0.5005336867991,0
0.4952476238119059,0.4901175881911435,0.7528146109582188,0.500687165355704,0.49412421298637876,0.5005197342030452,0
0.4952476238119059,0.48986740055041295,0.7530647985989494,0.5006714686851422,0.49418525559411897,0.5004116015836196,0
0.4952476238119059,0.4901175881911435,0.7528146109582188,0.5005947294068402,0.49415560632750233,0.5004726441913598,0
0.4952476238119059,0.4901175881911435,0.7528146109582188,0.5005947294068402,0.49418525559411897,0.5004726441913598,0
0.49549774887443715,0.4901175881911435,0.7528146109582188,0.5006557720145804,0.49418525559411897,0.5004569475207981,0
0.4952476238119059,0.4901175881911435,0.7528146109582188,0.500687165355704,0.49418525559411897,0.5004116015836196,0
0.49549774887443715,0.4901175881911435,0.7525644233174882,0.500610426077402,0.49424629820185917,0.5004429949247432,0
0.49549774887443715,0.4901175881911435,0.7530647985989494,0.5006714686851422,0.49413990965694055,0.5005336867991,0
0.4952476238119059,0.48986740055041295,0.7528146109582188,0.5006557720145804,0.49420095226468075,0.5005040375324834,0
0.49549774887443715,0.4901175881911435,0.7530647985989494,0.5005807768107854,0.49417130299806405,0.5005336867991,0
0.49549774887443715,0.4901175881911435,0.7530647985989494,0.500610426077402,0.49421664893524253,0.5005040375324834,0
0.49574787393696845,0.4901175881911435,0.7528146109582188,0.5007028620262658,0.49412421298637876,0.5004429949247432,0
0.49549774887443715,0.4901175881911435,0.7525644233174882,0.5006714686851422,0.49420095226468075,0.5005040375324834,0
0.4952476238119059,0.48986740055041295,0.7533149862396799,0.5006557720145804,0.49421664893524253,0.5005650801402236,0
0.49549774887443715,0.4901175881911435,0.7530647985989494,0.5006557720145804,0.49415560632750233,0.5004272982541814,0
0.4952476238119059,0.4901175881911435,0.7530647985989494,0.500687165355704,0.49415560632750233,0.5004272982541814,0
0.49549774887443715,0.4901175881911435,0.7528146109582188,0.5007028620262658,0.49413990965694055,0.5004883408619216,0
0.4952476238119059,0.4901175881911435,0.7528146109582188,0.5006418194185256,0.49424629820185917,0.5005493834696618,0
0.49549774887443715,0.4901175881911435,0.7525644233174882,0.5007028620262658,0.49412421298637876,0.5004883408619216,0
0.49574787393696845,0.4901175881911435,0.7528146109582188,0.5006714686851422,0.49426199487242095,0.5005197342030452,0
0.49549774887443715,0.48986740055041295,0.7530647985989494,0.5007028620262658,0.49418525559411897,0.5004569475207981,0
0.49499749874937465,0.4901175881911435,0.7533149862396799,0.5006557720145804,0.49423234560580426,0.5004726441913598,0
0.49549774887443715,0.4901175881911435,0.7530647985989494,0.5006418194185256,0.49415560632750233,0.5005336867991,0
0.49549774887443715,0.490367775831874,0.7523142356767576,0.500610426077402,0.49418525559411897,0.5005650801402236,0
0.49549774887443715,0.4901175881911435,0.7528146109582188,0.5005947294068402,0.49417130299806405,0.5005807768107854,0
0.49549774887443715,0.48986740055041295,0.7530647985989494,0.5006557720145804,0.49413990965694055,0.5005336867991,0
0.49574787393696845,0.48986740055041295,0.7530647985989494,0.5006557720145804,0.4940945637197621,0.5005040375324834,0
0.49549774887443715,0.490367775831874,0.7528146109582188,0.5005650801402236,0.49417130299806405,0.5005650801402236,0
0.4952476238119059,0.4901175881911435,0.7528146109582188,0.5005807768107854,0.49417130299806405,0.5005947294068402,0
0.4952476238119059,0.4901175881911435,0.7528146109582188,0.5005807768107854,0.49410851631581704,0.5005947294068402,0
0.49549774887443715,0.4901175881911435,0.7525644233174882,0.5006418194185256,0.49423234560580426,0.5005336867991,0
0.49549774887443715,0.48986740055041295,0.7525644233174882,0.5006418194185256,0.49413990965694055,0.5005650801402236,0
0.49549774887443715,0.4901175881911435,0.7530647985989494,0.5006261227479638,0.49415560632750233,0.5005197342030452,0
0.49549774887443715,0.4901175881911435,0.7528146109582188,0.500687165355704,0.49413990965694055,0.5005493834696618,0
0.49549774887443715,0.4901175881911435,0.7525644233174882,0.500610426077402,0.49418525559411897,0.5005336867991,0
0.49549774887443715,0.48986740055041295,0.7530647985989494,0.5005947294068402,0.49413990965694055,0.5005197342030452,0
0.49549774887443715,0.4901175881911435,0.7530647985989494,0.5005650801402236,0.49415560632750233,0.5005493834696618,0
0.4952476238119059,0.48986740055041295,0.7525644233174882,0.5005807768107854,0.49423234560580426,0.5005650801402236,0
0.49549774887443715,0.48986740055041295,0.7528146109582188,0.5006261227479638,0.49420095226468075,0.5005650801402236,0
0.49549774887443715,0.48986740055041295,0.7528146109582188,0.500610426077402,0.49418525559411897,0.5005197342030452,0
0.49549774887443715,0.4901175881911435,0.7533149862396799,0.5006418194185256,0.49415560632750233,0.5004726441913598,0
0.49549774887443715,0.4901175881911435,0.7528146109582188,0.5007028620262658,0.49417130299806405,0.5004883408619216,0
0.49549774887443715,0.4901175881911435,0.7528146109582188,0.5005947294068402,0.49417130299806405,0.5004883408619216,0
0.4952476238119059,0.48986740055041295,0.7530647985989494,0.500687165355704,0.49412421298637876,0.5005947294068402,0
0.49549774887443715,0.48986740055041295,0.7530647985989494,0.5006261227479638,0.49415560632750233,0.5005807768107854,0
0.4952476238119059,0.490367775831874,0.7530647985989494,0.5005197342030452,0.49415560632750233,0.5004726441913598,0
0.49549774887443715,0.4901175881911435,0.7528146109582188,0.5006714686851422,0.49417130299806405,0.5005040375324834,0
0.49549774887443715,0.4901175881911435,0.7530647985989494,0.5005947294068402,0.49420095226468075,0.5005336867991,0
0.49549774887443715,0.4901175881911435,0.7530647985989494,0.5006714686851422,0.49412421298637876,0.5004883408619216,0
0.4952476238119059,0.4901175881911435,0.7530647985989494,0.500610426077402,0.49417130299806405,0.5005336867991,0
0.4952476238119059,0.48986740055041295,0.7530647985989494,0.5006418194185256,0.49415560632750233,0.5005336867991,0
0.4952476238119059,0.4901175881911435,0.7530647985989494,0.5006418194185256,0.49418525559411897,0.5005040375324834,0
0.49549774887443715,0.4901175881911435,0.7525644233174882,0.5006261227479638,0.49413990965694055,0.5004726441913598,0
0.4952476238119059,0.4901175881911435,0.7530647985989494,0.5006418194185256,0.49410851631581704,0.5005040375324834,0
0.49549774887443715,0.4901175881911435,0.7533149862396799,0.5005650801402236,0.49421664893524253,0.5005040375324834,0
0.49574787393696845,0.4901175881911435,0.7530647985989494,0.5006557720145804,0.49417130299806405,0.5005336867991,0
0.4952476238119059,0.4901175881911435,0.7530647985989494,0.5006418194185256,0.49420095226468075,0.5004883408619216,0
0.49549774887443715,0.4901175881911435,0.7528146109582188,0.5006714686851422,0.49417130299806405,0.5003976489875648,0
0.49549774887443715,0.4901175881911435,0.7528146109582188,0.5006418194185256,0.49420095226468075,0.5005493834696618,0
0.49549774887443715,0.4901175881911435,0.7528146109582188,0.500687165355704,0.49420095226468075,0.5005650801402236,0
0.49549774887443715,0.4901175881911435,0.7528146109582188,0.5005947294068402,0.49420095226468075,0.5005493834696618,0
0.4952476238119059,0.48986740055041295,0.7528146109582188,0.500687165355704,0.49415560632750233,0.5005336867991,0
0.4952476238119059,0.4901175881911435,0.7530647985989494,0.5006261227479638,0.49415560632750233,0.5005650801402236,0
0.4952476238119059,0.48986740055041295,0.7530647985989494,0.500610426077402,0.49412421298637876,0.5005040375324834,0
0.4952476238119059,0.4901175881911435,0.7528146109582188,0.500687165355704,0.49420095226468075,0.5004726441913598,0
0.4952476238119059,0.4901175881911435,0.7528146109582188,0.5006714686851422,0.49424629820185917,0.5005040375324834,0
0.49549774887443715,0.48986740055041295,0.7528146109582188,0.5006418194185256,0.49417130299806405,0.5004883408619216,0
0.49549774887443715,0.48986740055041295,0.7533149862396799,0.5005947294068402,0.49420095226468075,0.5004726441913598,0
0.49574787393696845,0.48986740055041295,0.7523142356767576,0.5005947294068402,0.49427769154298273,0.5005040375324834,0
0.49549774887443715,0.48986740055041295,0.7528146109582188,0.5006418194185256,0.49412421298637876,0.5005040375324834,0
0.49549774887443715,0.4901175881911435,0.7528146109582188,0.5007028620262658,0.49421664893524253,0.5004883408619216,0
0.4952476238119059,0.48986740055041295,0.7528146109582188,0.5006418194185256,0.49418525559411897,0.5005336867991,0
0.49549774887443715,0.4901175881911435,0.7530647985989494,0.5006714686851422,0.49418525559411897,0.5004883408619216,0
0.49549774887443715,0.4901175881911435,0.7525644233174882,0.500610426077402,0.49417130299806405,0.5004883408619216,0
0.49549774887443715,0.4901175881911435,0.7530647985989494,0.5005947294068402,0.49418525559411897,0.5005040375324834,0
0.49549774887443715,0.4901175881911435,0.7528146109582188,0.5006557720145804,0.49418525559411897,0.5005197342030452,0
0.4952476238119059,0.4901175881911435,0.7528146109582188,0.5006714686851422,0.49413990965694055,0.5005493834696618,0
0.4952476238119059,0.48986740055041295,0.7528146109582188,0.500687165355704,0.49420095226468075,0.5005493834696618,0
0.4952476238119059,0.48986740055041295,0.7530647985989494,0.5006261227479638,0.49417130299806405,0.500610426077402,0
0.49549774887443715,0.4901175881911435,0.7528146109582188,0.500610426077402,0.49421664893524253,0.5004883408619216,0
0.49549774887443715,0.4901175881911435,0.7528146109582188,0.5006557720145804,0.49417130299806405,0.5005336867991,0
0.49549774887443715,0.4901175881911435,0.7528146109582188,0.500610426077402,0.49423234560580426,0.5005650801402236,0
0.49549774887443715,0.4901175881911435,0.7525644233174882,0.500610426077402,0.49420095226468075,0.5005493834696618,0
0.49549774887443715,0.4901175881911435,0.7530647985989494,0.500610426077402,0.49415560632750233,0.5005336867991,0
0.49549774887443715,0.48986740055041295,0.7530647985989494,0.5006261227479638,0.49415560632750233,0.5004569475207981,0
0.4952476238119059,0.48986740055041295,0.7530647985989494,0.500610426077402,0.49420095226468075,0.5004883408619216,0
0.4952476238119059,0.48986740055041295,0.7530647985989494,0.5006261227479638,0.49417130299806405,0.5005493834696618,0
0.49549774887443715,0.4901175881911435,0.7528146109582188,0.5005947294068402,0.49421664893524253,0.5005493834696618,0
0.4952476238119059,0.490367775831874,0.7530647985989494,0.500687165355704,0.49410851631581704,0.5005336867991,0
0.49549774887443715,0.4901175881911435,0.7528146109582188,0.5007168146223206,0.49417130299806405,0.5004569475207981,0
0.4952476238119059,0.48986740055041295,0.7528146109582188,0.5006261227479638,0.49413990965694055,0.5005040375324834,0
0.4952476238119059,0.48986740055041295,0.7528146109582188,0.5006261227479638,0.49417130299806405,0.5005650801402236,0
0.49549774887443715,0.48986740055041295,0.7530647985989494,0.5005807768107854,0.49420095226468075,0.5005197342030452,0
0.49549774887443715,0.4901175881911435,0.7528146109582188,0.5007168146223206,0.49423234560580426,0.5005197342030452,0
0.49574787393696845,0.4901175881911435,0.7530647985989494,0.5005807768107854,0.49413990965694055,0.5004883408619216,0
0.49549774887443715,0.48986740055041295,0.7530647985989494,0.5005947294068402,0.49418525559411897,0.5005807768107854,0
0.49549774887443715,0.4901175881911435,0.7528146109582188,0.500610426077402,0.49417130299806405,0.5005040375324834,0
0.4952476238119059,0.48986740055041295,0.7528146109582188,0.5006261227479638,0.49418525559411897,0.5005197342030452,0
0.49549774887443715,0.4901175881911435,0.7528146109582188,0.5006261227479638,0.49412421298637876,0.5005650801402236,0
0.49549774887443715,0.48986740055041295,0.7530647985989494,0.5006261227479638,0.49418525559411897,0.5004726441913598,0
0.49549774887443715,0.4901175881911435,0.7528146109582188,0.5006418194185256,0.49415560632750233,0.5004726441913598,0
0.4952476238119059,0.4901175881911435,0.7525644233174882,0.5005947294068402,0.49410851631581704,0.5005197342030452,0
0.49549774887443715,0.48986740055041295,0.7528146109582188,0.5006261227479638,0.49413990965694055,0.5005040375324834,0
0.4952476238119059,0.4901175881911435,0.7528146109582188,0.5006418194185256,0.49423234560580426,0.5004726441913598,0
0.49549774887443715,0.4901175881911435,0.7528146109582188,0.5006261227479638,0.49418525559411897,0.5005197342030452,0
0.49549774887443715,0.4901175881911435,0.7530647985989494,0.5006557720145804,0.49423234560580426,0.5004569475207981,0
0.4952476238119059,0.48986740055041295,0.7530647985989494,0.5006261227479638,0.49417130299806405,0.5005197342030452,0
0.4952476238119059,0.4901175881911435,0.7530647985989494,0.5005197342030452,0.49426199487242095,0.5005493834696618,0
0.49549774887443715,0.4901175881911435,0.7523142356767576,0.5005807768107854,0.49423234560580426,0.5005040375324834,0
0.49549774887443715,0.48986740055041295,0.7528146109582188,0.5006714686851422,0.49418525559411897,0.5005040375324834,0
0.49549774887443715,0.48986740055041295,0.7528146109582188,0.5007028620262658,0.49420095226468075,0.5005040375324834,0
0.4952476238119059,0.4901175881911435,0.7530647985989494,0.5005947294068402,0.49413990965694055,0.5005650801402236,0
0.49574787393696845,0.4901175881911435,0.7525644233174882,0.500687165355704,0.49413990965694055,0.5005650801402236,0
0.49549774887443715,0.4901175881911435,0.7528146109582188,0.5007028620262658,0.49421664893524253,0.5005807768107854,0
0.49549774887443715,0.4901175881911435,0.7528146109582188,0.5006418194185256,0.49418525559411897,0.5005493834696618,0
0.4952476238119059,0.4901175881911435,0.7528146109582188,0.500610426077402,0.49410851631581704,0.5004726441913598,0
0.49549774887443715,0.4901175881911435,0.7528146109582188,0.5006557720145804,0.49427769154298273,0.5004726441913598,0
0.49499749874937465,0.4901175881911435,0.7528146109582188,0.5006557720145804,0.49413990965694055,0.5005807768107854,0
0.4952476238119059,0.4901175881911435,0.7525644233174882,0.500687165355704,0.49421664893524253,0.5004883408619216,0
0.49549774887443715,0.490367775831874,0.7528146109582188,0.5007325112928824,0.49415560632750233,0.5004883408619216,0
0.49499749874937465,0.4901175881911435,0.7530647985989494,0.5007028620262658,0.49413990965694055,0.5005197342030452,0
0.49574787393696845,0.4901175881911435,0.7525644233174882,0.5006261227479638,0.49420095226468075,0.5004883408619216,0
0.49549774887443715,0.490367775831874,0.7528146109582188,0.5006714686851422,0.4940945637197621,0.5004726441913598,0
0.49549774887443715,0.490367775831874,0.7525644233174882,0.500687165355704,0.49426199487242095,0.5004883408619216,0
0.49499749874937465,0.4901175881911435,0.7528146109582188,0.5005947294068402,0.49418525559411897,0.5004429949247432,0
0.49549774887443715,0.4901175881911435,0.7528146109582188,0.500687165355704,0.49418525559411897,0.5005650801402236,0
0.49549774887443715,0.4901175881911435,0.7528146109582188,0.500610426077402,0.49417130299806405,0.5005336867991,0
0.49549774887443715,0.490367775831874,0.7525644233174882,0.5006261227479638,0.49418525559411897,0.5005947294068402,0
0.49549774887443715,0.4901175881911435,0.7530647985989494,0.5005807768107854,0.49426199487242095,0.5005650801402236,0
0.49549774887443715,0.48986740055041295,0.7528146109582188,0.500610426077402,0.49415560632750233,0.5004883408619216,0
0.49549774887443715,0.48986740055041295,0.7530647985989494,0.5006557720145804,0.49418525559411897,0.5004429949247432,0
0.4952476238119059,0.4901175881911435,0.7530647985989494,0.5006261227479638,0.49415560632750233,0.5005650801402236,0
0.4952476238119059,0.4901175881911435,0.7530647985989494,0.5006714686851422,0.49420095226468075,0.5005807768107854,0
0.49549774887443715,0.4901175881911435,0.7525644233174882,0.500687165355704,0.49413990965694055,0.5005650801402236,0
0.49549774887443715,0.48986740055041295,0.7530647985989494,0.5005807768107854,0.49421664893524253,0.5005807768107854,0
0.49549774887443715,0.4901175881911435,0.7528146109582188,0.5006418194185256,0.49410851631581704,0.5005650801402236,0
0.4952476238119059,0.4901175881911435,0.7530647985989494,0.5006714686851422,0.49417130299806405,0.5004726441913598,0
0.49549774887443715,0.4896172129096824,0.7528146109582188,0.5005807768107854,0.49417130299806405,0.5005040375324834,0
0.4952476238119059,0.48986740055041295,0.7528146109582188,0.5007482079634442,0.49427769154298273,0.5005197342030452,0
0.49549774887443715,0.4901175881911435,0.7525644233174882,0.500610426077402,0.49412421298637876,0.5005197342030452,0
0.4952476238119059,0.4901175881911435,0.7530647985989494,0.500610426077402,0.49424629820185917,0.5005197342030452,0
0.4952476238119059,0.4901175881911435,0.7528146109582188,0.5006714686851422,0.49417130299806405,0.5004429949247432,0
0.4952476238119059,0.4901175881911435,0.7528146109582188,0.5007168146223206,0.49417130299806405,0.5005040375324834,0
0.4952476238119059,0.4901175881911435,0.7528146109582188,0.5006557720145804,0.49420095226468075,0.5005197342030452,0
0.4952476238119059,0.48986740055041295,0.7528146109582188,0.5007935539006226,0.49415560632750233,0.5004429949247432,0
0.49549774887443715,0.4901175881911435,0.7528146109582188,0.500610426077402,0.49420095226468075,0.5005650801402236,0
0.49499749874937465,0.4901175881911435,0.7530647985989494,0.5005807768107854,0.49412421298637876,0.5005040375324834,0
0.4952476238119059,0.48986740055041295,0.7528146109582188,0.5006418194185256,0.49415560632750233,0.5005807768107854,0
0.4952476238119059,0.48986740055041295,0.7533149862396799,0.500610426077402,0.49426199487242095,0.5005493834696618,0
0.49549774887443715,0.48986740055041295,0.7528146109582188,0.5005807768107854,0.49423234560580426,0.5005197342030452,0
0.4952476238119059,0.4901175881911435,0.7528146109582188,0.5005807768107854,0.49417130299806405,0.5005040375324834,0
0.4952476238119059,0.48986740055041295,0.7528146109582188,0.5006261227479638,0.49421664893524253,0.5005650801402236,0
0.4952476238119059,0.48986740055041295,0.7528146109582188,0.5005807768107854,0.49417130299806405,0.5005040375324834,0
0.49574787393696845,0.4901175881911435,0.7528146109582188,0.5007028620262658,0.49410851631581704,0.5005493834696618,0
0.4952476238119059,0.4901175881911435,0.7533149862396799,0.5006557720145804,0.49423234560580426,0.5004569475207981,0
0.4952476238119059,0.4901175881911435,0.7528146109582188,0.5006418194185256,0.49421664893524253,0.5004726441913598,0
0.4952476238119059,0.4901175881911435,0.7533149862396799,0.500610426077402,0.49410851631581704,0.5004272982541814,0
0.49574787393696845,0.4901175881911435,0.7528146109582188,0.5005947294068402,0.49424629820185917,0.5005197342030452,0
0.49549774887443715,0.4901175881911435,0.7528146109582188,0.5005947294068402,0.49420095226468075,0.5005336867991,0
0.4952476238119059,0.4901175881911435,0.7530647985989494,0.5005650801402236,0.49423234560580426,0.5005040375324834,0
0.49549774887443715,0.4901175881911435,0.7528146109582188,0.5005947294068402,0.49413990965694055,0.5005040375324834,0
0.49574787393696845,0.4901175881911435,0.7530647985989494,0.5006261227479638,0.49420095226468075,0.5005040375324834,0
0.49499749874937465,0.48986740055041295,0.7528146109582188,0.5006261227479638,0.49418525559411897,0.5005493834696618,0
0.49549774887443715,0.490367775831874,0.7525644233174882,0.5005807768107854,0.49423234560580426,0.5005650801402236,0
0.49499749874937465,0.4901175881911435,0.7525644233174882,0.5006714686851422,0.49412421298637876,0.5004272982541814,0
0.4952476238119059,0.4901175881911435,0.7528146109582188,0.5006261227479638,0.49413990965694055,0.5005650801402236,0
0.4952476238119059,0.4901175881911435,0.7528146109582188,0.5006557720145804,0.49413990965694055,0.5005650801402236,0
0.49549774887443715,0.4901175881911435,0.7528146109582188,0.500610426077402,0.49421664893524253,0.5005040375324834,0
0.49549774887443715,0.48986740055041295,0.7528146109582188,0.5006261227479638,0.49418525559411897,0.5005197342030452,0
0.49574787393696845,0.4901175881911435,0.7525644233174882,0.5006418194185256,0.49417130299806405,0.5004429949247432,0
0.4952476238119059,0.4901175881911435,0.7530647985989494,0.5006261227479638,0.49420095226468075,0.5005040375324834,0
0.49549774887443715,0.48986740055041295,0.7528146109582188,0.5006714686851422,0.49418525559411897,0.5005336867991,0
0.49549774887443715,0.490367775831874,0.7523142356767576,0.5006261227479638,0.49417130299806405,0.5005336867991,0
0.49549774887443715,0.4896172129096824,0.7528146109582188,0.5006714686851422,0.49412421298637876,0.5005493834696618,0
0.49549774887443715,0.490367775831874,0.7525644233174882,0.500687165355704,0.49413990965694055,0.5005040375324834,0
0.4952476238119059,0.48986740055041295,0.7530647985989494,0.5005947294068402,0.49418525559411897,0.5005336867991,0
0.49549774887443715,0.4901175881911435,0.7528146109582188,0.5006714686851422,0.49415560632750233,0.5005040375324834,0
0.49574787393696845,0.4901175881911435,0.7528146109582188,0.5005807768107854,0.49418525559411897,0.5005197342030452,0
0.4952476238119059,0.48986740055041295,0.7530647985989494,0.500610426077402,0.49420095226468075,0.5005040375324834,0
0.49549774887443715,0.4901175881911435,0.7528146109582188,0.5006261227479638,0.49423234560580426,0.5005807768107854,0
0.4952476238119059,0.4896172129096824,0.7533149862396799,0.500610426077402,0.49417130299806405,0.5005493834696618,0
0.49549774887443715,0.48986740055041295,0.7525644233174882,0.5006714686851422,0.49421664893524253,0.5005040375324834,0
0.4952476238119059,0.490367775831874,0.7525644233174882,0.5005650801402236,0.49418525559411897,0.5004726441913598,0
0.4952476238119059,0.4901175881911435,0.7525644233174882,0.5006714686851422,0.49417130299806405,0.5004726441913598,0
0.49549774887443715,0.4901175881911435,0.7528146109582188,0.5007325112928824,0.49421664893524253,0.5005040375324834,0
0.49549774887443715,0.48986740055041295,0.7528146109582188,0.5006714686851422,0.49427769154298273,0.5003976489875648,0
0.49549774887443715,0.48986740055041295,0.7528146109582188,0.5007028620262658,0.49412421298637876,0.5005040375324834,0
0.49549774887443715,0.4906179634726046,0.7530647985989494,0.5005650801402236,0.49417130299806405,0.5003976489875648,0
0.49549774887443715,0.48986740055041295,0.7530647985989494,0.5005493834696618,0.49418525559411897,0.5005493834696618,0
0.49574787393696845,0.4901175881911435,0.7525644233174882,0.5005947294068402,0.49413990965694055,0.5005493834696618,0
0.4952476238119059,0.4901175881911435,0.7528146109582188,0.5005493834696618,0.49418525559411897,0.5004569475207981,0
0.4952476238119059,0.4901175881911435,0.7528146109582188,0.5006261227479638,0.49418525559411897,0.5005197342030452,0
0.49549774887443715,0.4901175881911435,0.7528146109582188,0.500610426077402,0.49420095226468075,0.5004116015836196,0
0.49549774887443715,0.4901175881911435,0.7528146109582188,0.5006418194185256,0.49415560632750233,0.5005947294068402,0
0.49549774887443715,0.4901175881911435,0.7525644233174882,0.500610426077402,0.49423234560580426,0.5004569475207981,0
0.4952476238119059,0.4901175881911435,0.7530647985989494,0.500687165355704,0.49417130299806405,0.5004569475207981,0
0.4952476238119059,0.4901175881911435,0.7525644233174882,0.5006418194185256,0.49420095226468075,0.5004883408619216,0
0.4952476238119059,0.4901175881911435,0.7528146109582188,0.5006714686851422,0.49423234560580426,0.5005650801402236,0
0.4952476238119059,0.48986740055041295,0.7530647985989494,0.5006557720145804,0.49415560632750233,0.5005197342030452,0
0.4952476238119059,0.4901175881911435,0.7525644233174882,0.500610426077402,0.49418525559411897,0.5004429949247432,0
0.49574787393696845,0.4901175881911435,0.7530647985989494,0.5006714686851422,0.49421664893524253,0.5004726441913598,0
0.49574787393696845,0.4901175881911435,0.7525644233174882,0.5006714686851422,0.49415560632750233,0.5004569475207981,0
0.4952476238119059,0.4901175881911435,0.7530647985989494,0.5007028620262658,0.49420095226468075,0.5004726441913598,0
0.4952476238119059,0.48986740055041295,0.7525644233174882,0.5007028620262658,0.49423234560580426,0.5005040375324834,0
0.49549774887443715,0.48986740055041295,0.7525644233174882,0.5006714686851422,0.49415560632750233,0.5004883408619216,0
0.49549774887443715,0.4901175881911435,0.7530647985989494,0.5006714686851422,0.49421664893524253,0.5004726441913598,0
0.49549774887443715,0.4901175881911435,0.7525644233174882,0.5006418194185256,0.49423234560580426,0.5005493834696618,0
0.4952476238119059,0.48986740055041295,0.7533149862396799,0.5005807768107854,0.49418525559411897,0.5005336867991,0
0.4952476238119059,0.4901175881911435,0.7530647985989494,0.5006714686851422,0.49412421298637876,0.5004726441913598,0
0.49549774887443715,0.4901175881911435,0.7530647985989494,0.5007028620262658,0.49423234560580426,0.5004883408619216,0
0.49574787393696845,0.4901175881911435,0.7525644233174882,0.5006557720145804,0.49415560632750233,0.5005040375324834,0
0.4952476238119059,0.48986740055041295,0.7528146109582188,0.5006557720145804,0.49420095226468075,0.5005197342030452,0
0.49549774887443715,0.4901175881911435,0.7528146109582188,0.5005947294068402,0.49413990965694055,0.5006261227479638,0
0.4952476238119059,0.4901175881911435,0.7525644233174882,0.5006418194185256,0.49413990965694055,0.5005807768107854,0
0.49549774887443715,0.48986740055041295,0.7530647985989494,0.5007028620262658,0.49420095226468075,0.5005650801402236,0
0.4952476238119059,0.48986740055041295,0.7530647985989494,0.5005807768107854,0.49413990965694055,0.5005650801402236,0
0.49549774887443715,0.4901175881911435,0.7528146109582188,0.5006261227479638,0.49423234560580426,0.5005493834696618,0
0.49549774887443715,0.48986740055041295,0.7530647985989494,0.500687165355704,0.49415560632750233,0.5005650801402236,0
0.49574787393696845,0.48986740055041295,0.7525644233174882,0.5005807768107854,0.49412421298637876,0.5005197342030452,0
0.4952476238119059,0.4901175881911435,0.7528146109582188,0.500610426077402,0.49421664893524253,0.5005493834696618,0
0.49549774887443715,0.48986740055041295,0.7523142356767576,0.5005947294068402,0.49415560632750233,0.5004883408619216,0
0.4959979989994997,0.490367775831874,0.7530647985989494,0.5006418194185256,0.49421664893524253,0.5006261227479638,0
0.49499749874937465,0.4896172129096824,0.7528146109582188,0.5006261227479638,0.49412421298637876,0.5004569475207981,0
0.49549774887443715,0.4901175881911435,0.7528146109582188,0.5006261227479638,0.49415560632750233,0.5004569475207981,0
0.4952476238119059,0.4901175881911435,0.7525644233174882,0.500610426077402,0.49413990965694055,0.5005336867991,0
0.49549774887443715,0.4901175881911435,0.7530647985989494,0.500610426077402,0.49417130299806405,0.5005336867991,0
0.4952476238119059,0.48986740055041295,0.7525644233174882,0.500687165355704,0.49429164413903764,0.5005040375324834,0
0.49549774887443715,0.4901175881911435,0.7523142356767576,0.5005807768107854,0.49429164413903764,0.5004883408619216,0
0.4952476238119059,0.490367775831874,0.7528146109582188,0.500687165355704,0.49415560632750233,0.5005493834696618,0
0.49574787393696845,0.48986740055041295,0.7528146109582188,0.5006261227479638,0.49420095226468075,0.5005650801402236,0
0.49549774887443715,0.48986740055041295,0.7525644233174882,0.5006714686851422,0.49410851631581704,0.5005197342030452,0
0.49549774887443715,0.48986740055041295,0.7525644233174882,0.5006261227479638,0.49421664893524253,0.5005650801402236,0
0.4952476238119059,0.490367775831874,0.7525644233174882,0.5005947294068402,0.49418525559411897,0.5005040375324834,0
0.4952476238119059,0.48986740055041295,0.7530647985989494,0.5006261227479638,0.49418525559411897,0.5005040375324834,0
0.4952476238119059,0.4901175881911435,0.7528146109582188,0.500610426077402,0.49413990965694055,0.5005040375324834,0
0.4952476238119059,0.4901175881911435,0.7528146109582188,0.5005947294068402,0.49418525559411897,0.5005040375324834,0
0.4952476238119059,0.4901175881911435,0.7528146109582188,0.5006261227479638,0.49423234560580426,0.5004429949247432,0
0.49499749874937465,0.48986740055041295,0.7535651738804104,0.500687165355704,0.49417130299806405,0.5005336867991,0
0.49549774887443715,0.4901175881911435,0.7528146109582188,0.5005947294068402,0.49420095226468075,0.5004272982541814,0
0.4952476238119059,0.48986740055041295,0.7528146109582188,0.5007028620262658,0.49412421298637876,0.5005336867991,0
0.49574787393696845,0.48986740055041295,0.7525644233174882,0.5005947294068402,0.49415560632750233,0.5005197342030452,0
0.49549774887443715,0.48986740055041295,0.7525644233174882,0.5006714686851422,0.49418525559411897,0.5004883408619216,0
0.49549774887443715,0.490367775831874,0.7525644233174882,0.500687165355704,0.49413990965694055,0.5004883408619216,0
0.49499749874937465,0.4896172129096824,0.7533149862396799,0.5005650801402236,0.49421664893524253,0.5005493834696618,0
0.4959979989994997,0.490367775831874,0.7523142356767576,0.5006557720145804,0.49417130299806405,0.5005040375324834,0
0.49499749874937465,0.48986740055041295,0.7528146109582188,0.5006557720145804,0.49410851631581704,0.5005197342030452,0
0.49549774887443715,0.4901175881911435,0.7528146109582188,0.5005807768107854,0.49415560632750233,0.5005947294068402,0
0.49549774887443715,0.4901175881911435,0.7528146109582188,0.5005947294068402,0.49412421298637876,0.5005197342030452,0
0.4952476238119059,0.490367775831874,0.7528146109582188,0.5006714686851422,0.49415560632750233,0.5005197342030452,0
0.49549774887443715,0.4901175881911435,0.7525644233174882,0.5005947294068402,0.49420095226468075,0.5005040375324834,0
0.49549774887443715,0.490367775831874,0.7530647985989494,0.5006714686851422,0.49424629820185917,0.5004883408619216,0
0.49549774887443715,0.4901175881911435,0.7528146109582188,0.5006557720145804,0.49420095226468075,0.5005040375324834,0
0.49549774887443715,0.4896172129096824,0.7528146109582188,0.5006714686851422,0.49421664893524253,0.5005336867991,0
0.49574787393696845,0.490367775831874,0.7528146109582188,0.5007028620262658,0.49418525559411897,0.5005197342030452,0
0.4952476238119059,0.4901175881911435,0.7528146109582188,0.5006714686851422,0.49417130299806405,0.5004726441913598,0
0.49549774887443715,0.4901175881911435,0.7528146109582188,0.5006557720145804,0.49418525559411897,0.5004116015836196,0
0.49549774887443715,0.48986740055041295,0.7528146109582188,0.5005650801402236,0.49418525559411897,0.5004883408619216,0
0.49549774887443715,0.4901175881911435,0.7528146109582188,0.500610426077402,0.49421664893524253,0.5005493834696618,0
0.49499749874937465,0.48986740055041295,0.7528146109582188,0.5006418194185256,0.49413990965694055,0.5005197342030452,0
0.49574787393696845,0.4901175881911435,0.7528146109582188,0.5005493834696618,0.49413990965694055,0.5004569475207981,0
0.49549774887443715,0.490367775831874,0.7525644233174882,0.5005947294068402,0.49423234560580426,0.5005650801402236,0
0.4952476238119059,0.4901175881911435,0.7530647985989494,0.5006418194185256,0.49418525559411897,0.5005040375324834,0
0.49574787393696845,0.4901175881911435,0.7530647985989494,0.5006261227479638,0.49424629820185917,0.5005197342030452,0
0.49574787393696845,0.4901175881911435,0.7525644233174882,0.5006261227479638,0.49421664893524253,0.5004883408619216,0
0.49549774887443715,0.4901175881911435,0.7528146109582188,0.500610426077402,0.49421664893524253,0.5005493834696618,0
0.49549774887443715,0.48986740055041295,0.7530647985989494,0.500610426077402,0.49407886704920034,0.5004883408619216,0
0.49549774887443715,0.48986740055041295,0.7530647985989494,0.5006418194185256,0.49415560632750233,0.5005493834696618,0
0.49549774887443715,0.490367775831874,0.7523142356767576,0.5005650801402236,0.49413990965694055,0.5005493834696618,0
0.4952476238119059,0.48986740055041295,0.7530647985989494,0.5006261227479638,0.49417130299806405,0.5005197342030452,0
0.49549774887443715,0.48986740055041295,0.7528146109582188,0.5006418194185256,0.49421664893524253,0.5005493834696618,0
0.49549774887443715,0.4901175881911435,0.7528146109582188,0.5006418194185256,0.49417130299806405,0.5004569475207981,0
0.49549774887443715,0.4896172129096824,0.7530647985989494,0.5006714686851422,0.49417130299806405,0.5005197342030452,0
0.49549774887443715,0.490367775831874,0.7523142356767576,0.5007028620262658,0.49415560632750233,0.5005040375324834,0
0.4952476238119059,0.48986740055041295,0.7530647985989494,0.5006418194185256,0.49418525559411897,0.5005040375324834,0
0.49549774887443715,0.4901175881911435,0.7533149862396799,0.500610426077402,0.4940945637197621,0.5005197342030452,0
0.49574787393696845,0.4901175881911435,0.7523142356767576,0.5007168146223206,0.49417130299806405,0.5005197342030452,0
0.49549774887443715,0.48986740055041295,0.7530647985989494,0.5005197342030452,0.49418525559411897,0.5005650801402236,0
0.49549774887443715,0.4901175881911435,0.7528146109582188,0.5006418194185256,0.49417130299806405,0.5005650801402236,0
0.4952476238119059,0.4901175881911435,0.7528146109582188,0.5006418194185256,0.49417130299806405,0.5005336867991,0
0.49549774887443715,0.4901175881911435,0.7528146109582188,0.5005947294068402,0.49417130299806405,0.5005807768107854,0
0.4952476238119059,0.4901175881911435,0.7528146109582188,0.5005336867991,0.49412421298637876,0.5005197342030452,0
0.49549774887443715,0.4901175881911435,0.7530647985989494,0.5005493834696618,0.49423234560580426,0.5005650801402236,0
0.4952476238119059,0.48986740055041295,0.7530647985989494,0.5005807768107854,0.49417130299806405,0.5004726441913598,0
0.4952476238119059,0.48986740055041295,0.7523142356767576,0.5006557720145804,0.49427769154298273,0.5005040375324834,0
0.49549774887443715,0.4901175881911435,0.7528146109582188,0.5005947294068402,0.49420095226468075,0.5005040375324834,0
0.4952476238119059,0.4896172129096824,0.7528146109582188,0.5007028620262658,0.49418525559411897,0.5005336867991,0
0.49549774887443715,0.48986740055041295,0.7528146109582188,0.500687165355704,0.49412421298637876,0.5004883408619216,0
0.49549774887443715,0.48986740055041295,0.7525644233174882,0.5007325112928824,0.49418525559411897,0.5005650801402236,0
0.4952476238119059,0.4901175881911435,0.7528146109582188,0.5006261227479638,0.49418525559411897,0.5005650801402236,0
0.49549774887443715,0.48986740055041295,0.7528146109582188,0.5005947294068402,0.49412421298637876,0.5005197342030452,0
0.49549774887443715,0.48986740055041295,0.7528146109582188,0.5006418194185256,0.49417130299806405,0.5004726441913598,0
0.4952476238119059,0.48986740055041295,0.7530647985989494,0.5005947294068402,0.49415560632750233,0.5004883408619216,0
0.49549774887443715,0.490367775831874,0.7530647985989494,0.5006261227479638,0.49415560632750233,0.5005197342030452,0
0.49549774887443715,0.4901175881911435,0.7525644233174882,0.5006557720145804,0.49415560632750233,0.5005493834696618,0
0.49549774887443715,0.48986740055041295,0.7528146109582188,0.5007325112928824,0.49417130299806405,0.5005040375324834,0
0.49549774887443715,0.490367775831874,0.7523142356767576,0.5006418194185256,0.49420095226468075,0.5004883408619216,0
0.4952476238119059,0.4901175881911435,0.7528146109582188,0.5006714686851422,0.49418525559411897,0.5004272982541814,0
0.49499749874937465,0.4901175881911435,0.7525644233174882,0.5006261227479638,0.49415560632750233,0.5005493834696618,0
0.4952476238119059,0.4901175881911435,0.7525644233174882,0.5005493834696618,0.49423234560580426,0.5005040375324834,0
0.4952476238119059,0.48986740055041295,0.7528146109582188,0.500610426077402,0.49418525559411897,0.5004569475207981,0
0.49549774887443715,0.48986740055041295,0.7528146109582188,0.5007325112928824,0.49417130299806405,0.5005336867991,0
0.49549774887443715,0.4901175881911435,0.7528146109582188,0.5005807768107854,0.49415560632750233,0.5004726441913598,0
0.4952476238119059,0.4901175881911435,0.7528146109582188,0.5005807768107854,0.49418525559411897,0.5005650801402236,0
0.4952476238119059,0.48986740055041295,0.7528146109582188,0.5006557720145804,0.49417130299806405,0.5004883408619216,0
0.49549774887443715,0.48986740055041295,0.7525644233174882,0.5007325112928824,0.49421664893524253,0.5005336867991,0
0.4952476238119059,0.490367775831874,0.7528146109582188,0.500687165355704,0.49421664893524253,0.5004429949247432,0
0.49549774887443715,0.4901175881911435,0.7528146109582188,0.500610426077402,0.49420095226468075,0.5004569475207981,0
0.49549774887443715,0.4901175881911435,0.7530647985989494,0.500687165355704,0.49415560632750233,0.5005336867991,0
0.49549774887443715,0.4901175881911435,0.7528146109582188,0.5006557720145804,0.49421664893524253,0.5005040375324834,0
0.4952476238119059,0.4901175881911435,0.7533149862396799,0.500610426077402,0.49420095226468075,0.5004429949247432,0
0.49549774887443715,0.48986740055041295,0.7525644233174882,0.5006261227479638,0.49417130299806405,0.5005040375324834,0
0.49549774887443715,0.48986740055041295,0.7530647985989494,0.5006418194185256,0.49424629820185917,0.5005040375324834,0
0.49549774887443715,0.4901175881911435,0.7525644233174882,0.5007028620262658,0.49421664893524253,0.5005040375324834,0
0.4952476238119059,0.4901175881911435,0.7525644233174882,0.5006418194185256,0.49415560632750233,0.5005197342030452,0
0.49549774887443715,0.4901175881911435,0.7525644233174882,0.5007325112928824,0.49412421298637876,0.5005336867991,0
0.4952476238119059,0.48986740055041295,0.7525644233174882,0.5006418194185256,0.49430734080959937,0.5005493834696618,0
0.4952476238119059,0.4901175881911435,0.7528146109582188,0.5005807768107854,0.49420095226468075,0.5005197342030452,0
0.49549774887443715,0.4901175881911435,0.7525644233174882,0.5007325112928824,0.49412421298637876,0.5005650801402236,0
0.49549774887443715,0.4901175881911435,0.7523142356767576,0.5006418194185256,0.49413990965694055,0.5005493834696618,0
0.49549774887443715,0.4901175881911435,0.7530647985989494,0.5005947294068402,0.49415560632750233,0.5005197342030452,0
0.49549774887443715,0.48986740055041295,0.7525644233174882,0.500610426077402,0.49417130299806405,0.5005650801402236,0
0.49574787393696845,0.490367775831874,0.7528146109582188,0.500610426077402,0.49415560632750233,0.500610426077402,0
0.49549774887443715,0.4896172129096824,0.7530647985989494,0.5007028620262658,0.49420095226468075,0.5004726441913598,0
0.4959979989994997,0.490367775831874,0.7525644233174882,0.5005947294068402,0.49420095226468075,0.5005650801402236,0
0.49549774887443715,0.48986740055041295,0.7530647985989494,0.5006557720145804,0.49412421298637876,0.5005807768107854,0
0.4952476238119059,0.48986740055041295,0.7530647985989494,0.5005807768107854,0.49420095226468075,0.5004429949247432,0
0.4952476238119059,0.4896172129096824,0.7528146109582188,0.5006418194185256,0.49423234560580426,0.5004883408619216,0
0.49549774887443715,0.48986740055041295,0.7525644233174882,0.5006261227479638,0.49427769154298273,0.5005650801402236,0
0.49549774887443715,0.490367775831874,0.7530647985989494,0.5005197342030452,0.49426199487242095,0.5004883408619216,0
0.49549774887443715,0.48986740055041295,0.7528146109582188,0.5005650801402236,0.49421664893524253,0.5004883408619216,0
0.49549774887443715,0.4901175881911435,0.7528146109582188,0.500610426077402,0.49420095226468075,0.5005040375324834,0
0.4952476238119059,0.48986740055041295,0.7530647985989494,0.5006557720145804,0.49417130299806405,0.5005336867991,0
0.49574787393696845,0.4901175881911435,0.7525644233174882,0.5005650801402236,0.49420095226468075,0.5005040375324834,0
0.49549774887443715,0.48986740055041295,0.7528146109582188,0.5006557720145804,0.49413990965694055,0.5005336867991,0
0.49549774887443715,0.4901175881911435,0.7528146109582188,0.5005493834696618,0.49423234560580426,0.5004883408619216,0
0.49549774887443715,0.490367775831874,0.7528146109582188,0.5005650801402236,0.49418525559411897,0.5004883408619216,0
0.49499749874937465,0.48986740055041295,0.7528146109582188,0.5006557720145804,0.49418525559411897,0.5005336867991,0
0.49549774887443715,0.48986740055041295,0.7528146109582188,0.5005947294068402,0.49417130299806405,0.5005650801402236,0
0.4952476238119059,0.4901175881911435,0.7528146109582188,0.5006557720145804,0.49420095226468075,0.5004726441913598,0
0.4952476238119059,0.4901175881911435,0.7528146109582188,0.5005807768107854,0.49413990965694055,0.5005650801402236,0
0.49549774887443715,0.490367775831874,0.7528146109582188,0.500610426077402,0.49423234560580426,0.5005197342030452,0
0.4952476238119059,0.48986740055041295,0.7528146109582188,0.5006557720145804,0.49410851631581704,0.5004883408619216,0
0.4952476238119059,0.490367775831874,0.7523142356767576,0.5005807768107854,0.49415560632750233,0.5005493834696618,0
0.4952476238119059,0.4901175881911435,0.7528146109582188,0.5005947294068402,0.49415560632750233,0.5005197342030452,0
0.4952476238119059,0.48986740055041295,0.7525644233174882,0.5006261227479638,0.49421664893524253,0.5004883408619216,0
0.49549774887443715,0.48986740055041295,0.7528146109582188,0.5006418194185256,0.49412421298637876,0.5004726441913598,0
0.4952476238119059,0.4901175881911435,0.7525644233174882,0.500610426077402,0.49426199487242095,0.5005197342030452,0
0.49549774887443715,0.48986740055041295,0.7528146109582188,0.5005807768107854,0.49420095226468075,0.5004726441913598,0
0.49574787393696845,0.4901175881911435,0.7523142356767576,0.5006261227479638,0.49421664893524253,0.5005040375324834,0
0.49549774887443715,0.4901175881911435,0.7528146109582188,0.5005947294068402,0.49420095226468075,0.5005040375324834,0
0.4952476238119059,0.48986740055041295,0.7530647985989494,0.5005947294068402,0.49413990965694055,0.5005336867991,0
0.49549774887443715,0.4901175881911435,0.7530647985989494,0.5006261227479638,0.49421664893524253,0.5005040375324834,0
0.4952476238119059,0.4901175881911435,0.7525644233174882,0.5005947294068402,0.49421664893524253,0.5005336867991,0
0.49549774887443715,0.48986740055041295,0.7528146109582188,0.5006714686851422,0.49413990965694055,0.5005336867991,0
0.4952476238119059,0.48986740055041295,0.7525644233174882,0.5006714686851422,0.49415560632750233,0.5005197342030452,0
0.49549774887443715,0.4901175881911435,0.7528146109582188,0.5006557720145804,0.49423234560580426,0.5004883408619216,0
0.49574787393696845,0.48986740055041295,0.7525644233174882,0.5006418194185256,0.49415560632750233,0.5004726441913598,0
0.4952476238119059,0.4901175881911435,0.7528146109582188,0.5006261227479638,0.49412421298637876,0.5005493834696618,0
0.4952476238119059,0.4901175881911435,0.7530647985989494,0.5006714686851422,0.49420095226468075,0.5005336867991,0
0.49549774887443715,0.4901175881911435,0.7530647985989494,0.500687165355704,0.49420095226468075,0.5005040375324834,0
0.4952476238119059,0.4901175881911435,0.7525644233174882,0.5006557720145804,0.49421664893524253,0.5004726441913598,0
0.49549774887443715,0.4901175881911435,0.7525644233174882,0.5006418194185256,0.49421664893524253,0.5004726441913598,0
0.4952476238119059,0.4901175881911435,0.7528146109582188,0.5006418194185256,0.49417130299806405,0.5005650801402236,0
0.4952476238119059,0.4901175881911435,0.7528146109582188,0.5006261227479638,0.49421664893524253,0.5006261227479638,0
0.49549774887443715,0.4901175881911435,0.7525644233174882,0.500687165355704,0.49410851631581704,0.5005197342030452,0
0.4952476238119059,0.4901175881911435,0.7530647985989494,0.5006557720145804,0.49415560632750233,0.5005197342030452,0
0.49549774887443715,0.490367775831874,0.7525644233174882,0.5006418194185256,0.49426199487242095,0.5005197342030452,0
0.49549774887443715,0.4901175881911435,0.7525644233174882,0.5007482079634442,0.49424629820185917,0.5005040375324834,0
0.49549774887443715,0.4901175881911435,0.7525644233174882,0.5007325112928824,0.49413990965694055,0.5004569475207981,0
0.49549774887443715,0.4901175881911435,0.7525644233174882,0.5007168146223206,0.49410851631581704,0.5005493834696618,0
0.49499749874937465,0.48986740055041295,0.7533149862396799,0.5005807768107854,0.49418525559411897,0.5005336867991,0
0.4952476238119059,0.48986740055041295,0.7530647985989494,0.5006261227479638,0.49420095226468075,0.5005040375324834,0
0.4952476238119059,0.48986740055041295,0.7530647985989494,0.5006418194185256,0.49420095226468075,0.5004883408619216,0
0.4952476238119059,0.4901175881911435,0.7525644233174882,0.5006557720145804,0.49417130299806405,0.5005493834696618,0
0.49549774887443715,0.48986740055041295,0.7528146109582188,0.5006557720145804,0.49423234560580426,0.5005197342030452,0
0.49549774887443715,0.48986740055041295,0.7525644233174882,0.5007028620262658,0.49423234560580426,0.5005493834696618,0
0.49549774887443715,0.4901175881911435,0.7530647985989494,0.5006418194185256,0.49413990965694055,0.5005650801402236,0
0.4952476238119059,0.48986740055041295,0.7528146109582188,0.5006261227479638,0.49420095226468075,0.5005040375324834,0
0.49574787393696845,0.4901175881911435,0.7528146109582188,0.5006557720145804,0.49418525559411897,0.5005493834696618,0
0.49549774887443715,0.48986740055041295,0.7530647985989494,0.5005650801402236,0.49420095226468075,0.5004116015836196,0
0.4952476238119059,0.48986740055041295,0.7528146109582188,0.5005650801402236,0.49412421298637876,0.5005336867991,0
0.49549774887443715,0.490367775831874,0.7528146109582188,0.5006261227479638,0.49423234560580426,0.5005040375324834,0
0.4952476238119059,0.4901175881911435,0.7530647985989494,0.5006418194185256,0.49417130299806405,0.5005040375324834,0
0.49549774887443715,0.490367775831874,0.7525644233174882,0.500687165355704,0.49412421298637876,0.5005197342030452,0
0.4952476238119059,0.4901175881911435,0.7530647985989494,0.5006418194185256,0.49426199487242095,0.5005807768107854,0
0.49549774887443715,0.4901175881911435,0.7525644233174882,0.500610426077402,0.49417130299806405,0.5005197342030452,0
0.49549774887443715,0.48986740055041295,0.7528146109582188,0.5005650801402236,0.49415560632750233,0.5004883408619216,0
0.4952476238119059,0.4901175881911435,0.7525644233174882,0.5005947294068402,0.49423234560580426,0.5005197342030452,0
0.4952476238119059,0.48986740055041295,0.7530647985989494,0.5005807768107854,0.49418525559411897,0.5005807768107854,0
0.49499749874937465,0.4896172129096824,0.7530647985989494,0.5007028620262658,0.49417130299806405,0.5005493834696618,0
0.4952476238119059,0.4901175881911435,0.7528146109582188,0.5006418194185256,0.49421664893524253,0.5004272982541814,0
0.4952476238119059,0.4901175881911435,0.7528146109582188,0.5005807768107854,0.49423234560580426,0.5005197342030452,0
0.49549774887443715,0.4901175881911435,0.7528146109582188,0.500687165355704,0.49418525559411897,0.5004883408619216,0
0.49549774887443715,0.48986740055041295,0.7525644233174882,0.5005807768107854,0.49429164413903764,0.5004883408619216,0
0.49549774887443715,0.48986740055041295,0.7528146109582188,0.5005807768107854,0.49427769154298273,0.5005650801402236,0
0.4952476238119059,0.4901175881911435,0.7525644233174882,0.5006714686851422,0.49413990965694055,0.5005197342030452,0
0.49549774887443715,0.4901175881911435,0.7528146109582188,0.5006418194185256,0.4940945637197621,0.5005947294068402,0
0.4952476238119059,0.48986740055041295,0.7528146109582188,0.5006557720145804,0.49418525559411897,0.5005650801402236,0
0.4952476238119059,0.4901175881911435,0.7528146109582188,0.500687165355704,0.49418525559411897,0.5005040375324834,0
0.49549774887443715,0.4901175881911435,0.7528146109582188,0.500687165355704,0.49424629820185917,0.5005650801402236,0
0.49549774887443715,0.4901175881911435,0.7528146109582188,0.5006261227479638,0.49420095226468075,0.5005493834696618,0
0.49549774887443715,0.4901175881911435,0.7530647985989494,0.5005650801402236,0.49421664893524253,0.5005493834696618,0
0.49549774887443715,0.48986740055041295,0.7528146109582188,0.5006557720145804,0.49418525559411897,0.5004569475207981,0
0.4952476238119059,0.490367775831874,0.7528146109582188,0.5006418194185256,0.49420095226468075,0.5005197342030452,0
0.49549774887443715,0.48986740055041295,0.7528146109582188,0.5006557720145804,0.49415560632750233,0.5005947294068402,0
0.49549774887443715,0.4901175881911435,0.7530647985989494,0.5006261227479638,0.49420095226468075,0.5005197342030452,0
0.49549774887443715,0.48986740055041295,0.7525644233174882,0.500687165355704,0.49412421298637876,0.5005493834696618,0
0.49549774887443715,0.48986740055041295,0.7528146109582188,0.5005807768107854,0.49415560632750233,0.5005336867991,0
0.49549774887443715,0.4901175881911435,0.7530647985989494,0.5006557720145804,0.49413990965694055,0.5005040375324834,0
0.49549774887443715,0.4901175881911435,0.7528146109582188,0.500687165355704,0.49413990965694055,0.5005493834696618,0
0.49549774887443715,0.48986740055041295,0.7528146109582188,0.5006261227479638,0.49420095226468075,0.5005197342030452,0
0.49549774887443715,0.490367775831874,0.7525644233174882,0.5006714686851422,0.49413990965694055,0.5004429949247432,0
0.49549774887443715,0.4901175881911435,0.7528146109582188,0.5006418194185256,0.49420095226468075,0.5005197342030452,0
0.49549774887443715,0.4901175881911435,0.7528146109582188,0.5006557720145804,0.49410851631581704,0.5005336867991,0
0.49549774887443715,0.4901175881911435,0.7525644233174882,0.5005807768107854,0.49421664893524253,0.5004429949247432,0
0.49549774887443715,0.4901175881911435,0.7525644233174882,0.5005807768107854,0.49420095226468075,0.5005650801402236,0
0.4952476238119059,0.4901175881911435,0.7528146109582188,0.500610426077402,0.49418525559411897,0.5005650801402236,0
0.49549774887443715,0.48986740055041295,0.7528146109582188,0.5006261227479638,0.49412421298637876,0.5005650801402236,0
0.49549774887443715,0.48986740055041295,0.7525644233174882,0.5006418194185256,0.49410851631581704,0.5005336867991,0
0.4952476238119059,0.4901175881911435,0.7528146109582188,0.5006714686851422,0.49420095226468075,0.5005493834696618,0
0.4952476238119059,0.4901175881911435,0.7525644233174882,0.5006714686851422,0.49418525559411897,0.5004883408619216,0
0.49549774887443715,0.48986740055041295,0.7530647985989494,0.500687165355704,0.49418525559411897,0.5004569475207981,0
0.49549774887443715,0.48986740055041295,0.7530647985989494,0.500687165355704,0.49413990965694055,0.5005197342030452,0
0.4952476238119059,0.4901175881911435,0.7528146109582188,0.500687165355704,0.49413990965694055,0.5005040375324834,0
0.4952476238119059,0.4901175881911435,0.7528146109582188,0.5006418194185256,0.49421664893524253,0.5004883408619216,0
0.49549774887443715,0.4901175881911435,0.7525644233174882,0.500687165355704,0.49417130299806405,0.5004569475207981,0
0.49574787393696845,0.48936702526895187,0.7525644233174882,0.5006418194185256,0.49415560632750233,0.5005947294068402,0
0.4952476238119059,0.4901175881911435,0.7523142356767576,0.5006418194185256,0.49418525559411897,0.5005197342030452,0
0.49499749874937465,0.490367775831874,0.7528146109582188,0.500610426077402,0.49418525559411897,0.5005040375324834,0
0.4952476238119059,0.4901175881911435,0.7528146109582188,0.5006261227479638,0.49421664893524253,0.5004429949247432,0
0.49549774887443715,0.4896172129096824,0.7525644233174882,0.500610426077402,0.49417130299806405,0.5005336867991,0
0.4952476238119059,0.4901175881911435,0.7530647985989494,0.5005336867991,0.49420095226468075,0.5005650801402236,0
0.4952476238119059,0.490367775831874,0.7530647985989494,0.5005493834696618,0.49426199487242095,0.5005197342030452,0
0.4952476238119059,0.4901175881911435,0.7530647985989494,0.5005807768107854,0.49424629820185917,0.5005947294068402,0
0.4952476238119059,0.4896172129096824,0.7528146109582188,0.500610426077402,0.49421664893524253,0.5005040375324834,0
0.49574787393696845,0.48986740055041295,0.7525644233174882,0.5007482079634442,0.49417130299806405,0.5004726441913598,0
0.49499749874937465,0.490367775831874,0.7530647985989494,0.5006714686851422,0.49417130299806405,0.5004883408619216,0
0.4952476238119059,0.490367775831874,0.7528146109582188,0.5006557720145804,0.49423234560580426,0.5005040375324834,0
0.49574787393696845,0.4896172129096824,0.7528146109582188,0.500610426077402,0.49415560632750233,0.5004883408619216,0
0.4952476238119059,0.48986740055041295,0.7530647985989494,0.5006261227479638,0.49412421298637876,0.5005040375324834,0
0.4952476238119059,0.4906179634726046,0.7530647985989494,0.5006557720145804,0.49417130299806405,0.5004726441913598,0
0.4952476238119059,0.490367775831874,0.7530647985989494,0.5005493834696618,0.49415560632750233,0.5005807768107854,0
0.49574787393696845,0.4896172129096824,0.7528146109582188,0.500687165355704,0.49415560632750233,0.5005040375324834,0
0.4952476238119059,0.48986740055041295,0.7528146109582188,0.5005947294068402,0.49412421298637876,0.5005040375324834,0
0.4952476238119059,0.4906179634726046,0.7525644233174882,0.5005807768107854,0.49424629820185917,0.5005947294068402,0
0.49549774887443715,0.490367775831874,0.7530647985989494,0.5006418194185256,0.49426199487242095,0.5004726441913598,0
0.49574787393696845,0.48986740055041295,0.7523142356767576,0.500687165355704,0.49420095226468075,0.5004429949247432,0
0.49549774887443715,0.4901175881911435,0.7525644233174882,0.500687165355704,0.49420095226468075,0.5005040375324834,0
0.4952476238119059,0.490367775831874,0.7525644233174882,0.5006557720145804,0.49417130299806405,0.5005650801402236,0
0.4952476238119059,0.490367775831874,0.7528146109582188,0.5006557720145804,0.49418525559411897,0.5005493834696618,0
0.49549774887443715,0.48986740055041295,0.7528146109582188,0.5006714686851422,0.49420095226468075,0.5005040375324834,0
0.49549774887443715,0.4901175881911435,0.7530647985989494,0.5006714686851422,0.49424629820185917,0.5005336867991,0
0.49549774887443715,0.4901175881911435,0.7528146109582188,0.5006418194185256,0.49415560632750233,0.5005197342030452,0
0.49549774887443715,0.490367775831874,0.7528146109582188,0.500610426077402,0.49417130299806405,0.5004726441913598,0
0.49574787393696845,0.48986740055041295,0.7525644233174882,0.5005493834696618,0.49418525559411897,0.5005493834696618,0
0.49499749874937465,0.4901175881911435,0.7530647985989494,0.5004272982541814,0.49429164413903764,0.5004883408619216,0
0.4952476238119059,0.4901175881911435,0.7525644233174882,0.5006261227479638,0.49418525559411897,0.5004726441913598,0
0.49574787393696845,0.48986740055041295,0.7525644233174882,0.5006418194185256,0.49417130299806405,0.5005197342030452,0
0.49574787393696845,0.4901175881911435,0.7525644233174882,0.5006261227479638,0.49413990965694055,0.5005040375324834,0
0.4952476238119059,0.490367775831874,0.7530647985989494,0.500610426077402,0.49413990965694055,0.5004883408619216,0
0.49499749874937465,0.490367775831874,0.7530647985989494,0.500687165355704,0.49420095226468075,0.5004429949247432,0
0.49574787393696845,0.48986740055041295,0.7525644233174882,0.5007028620262658,0.49418525559411897,0.5005493834696618,0
0.4952476238119059,0.48986740055041295,0.7530647985989494,0.5007028620262658,0.49421664893524253,0.5005650801402236,0
0.49549774887443715,0.4901175881911435,0.7530647985989494,0.5006714686851422,0.49412421298637876,0.5005493834696618,0
0.49549774887443715,0.48986740055041295,0.7525644233174882,0.5006714686851422,0.49417130299806405,0.5005197342030452,0
0.4952476238119059,0.4901175881911435,0.7525644233174882,0.500687165355704,0.49413990965694055,0.5005040375324834,0
0.49549774887443715,0.4901175881911435,0.7530647985989494,0.500687165355704,0.49418525559411897,0.5004116015836196,0
0.4952476238119059,0.4906179634726046,0.7528146109582188,0.5006261227479638,0.49417130299806405,0.5005040375324834,0
0.49574787393696845,0.48986740055041295,0.7530647985989494,0.5005807768107854,0.49418525559411897,0.5004883408619216,0
0.4952476238119059,0.48986740055041295,0.7528146109582188,0.500610426077402,0.49418525559411897,0.5004883408619216,0
0.49549774887443715,0.4901175881911435,0.7528146109582188,0.5006261227479638,0.49417130299806405,0.5005197342030452,0
0.4952476238119059,0.48986740055041295,0.7528146109582188,0.5006418194185256,0.49421664893524253,0.5005493834696618,0
0.4952476238119059,0.48986740055041295,0.7525644233174882,0.5006261227479638,0.49423234560580426,0.5005336867991,0
0.49549774887443715,0.48986740055041295,0.7525644233174882,0.5006557720145804,0.49418525559411897,0.5005336867991,0
0.49549774887443715,0.490367775831874,0.7528146109582188,0.5005807768107854,0.49423234560580426,0.5004569475207981,0
0.4952476238119059,0.490367775831874,0.7528146109582188,0.5007028620262658,0.49421664893524253,0.5005336867991,0
0.49549774887443715,0.48986740055041295,0.7530647985989494,0.5007028620262658,0.49420095226468075,0.5005040375324834,0
0.49549774887443715,0.4901175881911435,0.7525644233174882,0.5006714686851422,0.49415560632750233,0.5004726441913598,0
0.49499749874937465,0.490367775831874,0.7530647985989494,0.500610426077402,0.49418525559411897,0.5005040375324834,0
0.4952476238119059,0.4901175881911435,0.7525644233174882,0.5007168146223206,0.49420095226468075,0.5005336867991,0
0.49549774887443715,0.48986740055041295,0.7528146109582188,0.5006418194185256,0.49420095226468075,0.5005650801402236,0
0.49549774887443715,0.48986740055041295,0.7525644233174882,0.5006714686851422,0.49418525559411897,0.5005807768107854,0
0.4952476238119059,0.4901175881911435,0.7530647985989494,0.500610426077402,0.49421664893524253,0.5005336867991,0
0.49549774887443715,0.4901175881911435,0.7525644233174882,0.5006557720145804,0.49418525559411897,0.5005493834696618,0
0.49549774887443715,0.4901175881911435,0.7525644233174882,0.500610426077402,0.49417130299806405,0.5004569475207981,0
0.4952476238119059,0.4901175881911435,0.7528146109582188,0.500687165355704,0.49410851631581704,0.5005040375324834,0
0.4952476238119059,0.4901175881911435,0.7528146109582188,0.5006261227479638,0.49412421298637876,0.5004569475207981,0
0.4952476238119059,0.48986740055041295,0.7525644233174882,0.5005197342030452,0.49415560632750233,0.5005807768107854,0
0.49549774887443715,0.48986740055041295,0.7530647985989494,0.5006714686851422,0.49424629820185917,0.5005197342030452,0
0.4952476238119059,0.4901175881911435,0.7525644233174882,0.500610426077402,0.49420095226468075,0.5005650801402236,0
0.4952476238119059,0.4901175881911435,0.7530647985989494,0.500610426077402,0.49418525559411897,0.5004726441913598,0
0.49549774887443715,0.4901175881911435,0.7523142356767576,0.5007168146223206,0.49418525559411897,0.5005197342030452,0
0.49549774887443715,0.4901175881911435,0.7530647985989494,0.500610426077402,0.49417130299806405,0.5005040375324834,0
0.49499749874937465,0.4901175881911435,0.7530647985989494,0.500610426077402,0.49424629820185917,0.5005493834696618,0
0.4952476238119059,0.4901175881911435,0.7528146109582188,0.5007482079634442,0.49413990965694055,0.5005807768107854,0
0.49574787393696845,0.48986740055041295,0.7528146109582188,0.500687165355704,0.49413990965694055,0.5004569475207981,0
0.4952476238119059,0.490367775831874,0.7525644233174882,0.5006557720145804,0.49413990965694055,0.5005493834696618,0
0.4952476238119059,0.4901175881911435,0.7528146109582188,0.5006418194185256,0.49417130299806405,0.5004883408619216,0
0.4952476238119059,0.4901175881911435,0.7528146109582188,0.5005807768107854,0.49423234560580426,0.5005807768107854,0
0.49549774887443715,0.4901175881911435,0.7528146109582188,0.5006418194185256,0.49417130299806405,0.5005197342030452,0
0.49549774887443715,0.4901175881911435,0.7530647985989494,0.5006557720145804,0.49418525559411897,0.5004726441913598,0
0.4952476238119059,0.4901175881911435,0.7528146109582188,0.5005807768107854,0.49418525559411897,0.5005493834696618,0
0.49549774887443715,0.4901175881911435,0.7528146109582188,0.5006714686851422,0.49418525559411897,0.5004726441913598,0
0.49549774887443715,0.48986740055041295,0.7525644233174882,0.5006261227479638,0.49417130299806405,0.5005197342030452,0
0.4952476238119059,0.4901175881911435,0.7530647985989494,0.5005947294068402,0.49413990965694055,0.5005336867991,0
0.4952476238119059,0.4901175881911435,0.7528146109582188,0.5006557720145804,0.49417130299806405,0.5005040375324834,0
0.49549774887443715,0.48986740055041295,0.7525644233174882,0.500610426077402,0.49423234560580426,0.5005493834696618,0
0.4952476238119059,0.490367775831874,0.7525644233174882,0.500610426077402,0.49415560632750233,0.5004726441913598,0
0.49549774887443715,0.48986740055041295,0.7528146109582188,0.500610426077402,0.49417130299806405,0.5004883408619216,0
0.49549774887443715,0.48986740055041295,0.7525644233174882,0.5006418194185256,0.49418525559411897,0.5005807768107854,0
0.49549774887443715,0.48986740055041295,0.7533149862396799,0.5006418194185256,0.49418525559411897,0.5005040375324834,0
0.4952476238119059,0.4901175881911435,0.7528146109582188,0.5006557720145804,0.49423234560580426,0.5005197342030452,0
0.4952476238119059,0.4901175881911435,0.7528146109582188,0.5006418194185256,0.49413990965694055,0.5005947294068402,0
0.49574787393696845,0.490367775831874,0.7523142356767576,0.5006557720145804,0.49421664893524253,0.5005040375324834,0
0.4952476238119059,0.48986740055041295,0.7528146109582188,0.5007028620262658,0.49417130299806405,0.5005336867991,0
0.49574787393696845,0.4901175881911435,0.7528146109582188,0.5006557720145804,0.49420095226468075,0.5004726441913598,0
0.4952476238119059,0.4901175881911435,0.7528146109582188,0.5006557720145804,0.49421664893524253,0.5005336867991,0
0.49549774887443715,0.490367775831874,0.7525644233174882,0.500610426077402,0.49417130299806405,0.5005650801402236,0
0.4952476238119059,0.48986740055041295,0.7528146109582188,0.5005947294068402,0.49412421298637876,0.5005947294068402,0
0.49549774887443715,0.4901175881911435,0.7528146109582188,0.5007168146223206,0.49423234560580426,0.5004726441913598,0
0.4952476238119059,0.490367775831874,0.7528146109582188,0.500610426077402,0.49420095226468075,0.5005650801402236,0
0.4952476238119059,0.4901175881911435,0.7525644233174882,0.5006418194185256,0.49417130299806405,0.5004569475207981,0
0.49549774887443715,0.48986740055041295,0.7528146109582188,0.5006714686851422,0.49424629820185917,0.5005040375324834,0
0.49549774887443715,0.4901175881911435,0.7528146109582188,0.5006418194185256,0.49423234560580426,0.5004883408619216,0
0.49549774887443715,0.4901175881911435,0.7525644233174882,0.5005336867991,0.49424629820185917,0.500610426077402,0
0.49549774887443715,0.4901175881911435,0.7528146109582188,0.5006261227479638,0.49415560632750233,0.5005336867991,0
0.49549774887443715,0.4901175881911435,0.7530647985989494,0.5006557720145804,0.49420095226468075,0.5005336867991,0
0.4952476238119059,0.4901175881911435,0.7528146109582188,0.5006557720145804,0.49420095226468075,0.5005493834696618,0
0.49574787393696845,0.48986740055041295,0.7528146109582188,0.500610426077402,0.49420095226468075,0.5005197342030452,0
0.4952476238119059,0.4901175881911435,0.7530647985989494,0.5005650801402236,0.49426199487242095,0.5005650801402236,0
0.49549774887443715,0.48986740055041295,0.7525644233174882,0.5005336867991,0.49407886704920034,0.5005197342030452,0
0.4952476238119059,0.4901175881911435,0.7533149862396799,0.5006261227479638,0.49415560632750233,0.5005947294068402,0
0.4952476238119059,0.4901175881911435,0.7528146109582188,0.5006418194185256,0.49418525559411897,0.5005197342030452,0
0.49549774887443715,0.48986740055041295,0.7528146109582188,0.5006714686851422,0.49417130299806405,0.5004883408619216,0
0.49574787393696845,0.48986740055041295,0.7530647985989494,0.5006418194185256,0.49417130299806405,0.5004883408619216,0
0.49549774887443715,0.4901175881911435,0.7530647985989494,0.5006261227479638,0.49424629820185917,0.5004272982541814,0
0.49549774887443715,0.4901175881911435,0.7530647985989494,0.5006418194185256,0.49410851631581704,0.5004883408619216,0
0.49549774887443715,0.4901175881911435,0.7528146109582188,0.5006714686851422,0.49420095226468075,0.5005493834696618,0
0.49549774887443715,0.48986740055041295,0.7528146109582188,0.500763904634006,0.49417130299806405,0.5004116015836196,0
0.49549774887443715,0.4901175881911435,0.7528146109582188,0.5006557720145804,0.49415560632750233,0.5004569475207981,0
0.49549774887443715,0.4901175881911435,0.7528146109582188,0.500610426077402,0.49412421298637876,0.5004883408619216,0
0.4952476238119059,0.4901175881911435,0.7530647985989494,0.5005947294068402,0.49420095226468075,0.5005040375324834,0
0.49574787393696845,0.4901175881911435,0.7525644233174882,0.5007028620262658,0.49418525559411897,0.5004726441913598,0
0.49549774887443715,0.49086815111333515,0.7528146109582188,0.5006261227479638,0.49415560632750233,0.5004429949247432,0
0.4982491245622811,0.49887415561671267,0.7520640480360272,0.5004272982541814,0.4945515112405602,0.49462825051886217,0
0.4997498749374687,0.4901175881911435,0.7505629221916439,0.500763904634006,0.49458290458168375,0.49400212777089836,0
0.48974487243621806,0.484863647735802,0.7528146109582188,0.5004569475207981,0.4939724785042817,0.5076006767009087,0
0.4952476238119059,0.48986740055041295,0.7525644233174882,0.5006418194185256,0.49415560632750233,0.5004883408619216,0
0.4952476238119059,0.48986740055041295,0.7528146109582188,0.5006418194185256,0.49418525559411897,0.5005493834696618,0
0.49549774887443715,0.490367775831874,0.7525644233174882,0.5007168146223206,0.49420095226468075,0.5005040375324834,0
0.4952476238119059,0.48986740055041295,0.7523142356767576,0.5006418194185256,0.49423234560580426,0.5005807768107854,0
0.4952476238119059,0.48986740055041295,0.7525644233174882,0.500687165355704,0.49417130299806405,0.5005040375324834,0
0.49549774887443715,0.490367775831874,0.7528146109582188,0.5006261227479638,0.49424629820185917,0.5003505589758794,0
0.49549774887443715,0.49086815111333515,0.7528146109582188,0.5007168146223206,0.49421664893524253,0.5000453459371784,0
0.4952476238119059,0.4886164623467602,0.7528146109582188,0.5006557720145804,0.49426199487242095,0.500151734482097,0
0.49549774887443715,0.48986740055041295,0.7530647985989494,0.5007168146223206,0.49417130299806405,0.5004726441913598,0
0.4952476238119059,0.48986740055041295,0.7530647985989494,0.5006418194185256,0.49410851631581704,0.5004569475207981,0
0.4952476238119059,0.4901175881911435,0.7528146109582188,0.5006557720145804,0.49421664893524253,0.5004726441913598,0
0.49549774887443715,0.48986740055041295,0.7528146109582188,0.5006557720145804,0.49418525559411897,0.5005040375324834,0
0.4952476238119059,0.48986740055041295,0.7528146109582188,0.5006261227479638,0.49420095226468075,0.5005040375324834,0
0.4952476238119059,0.48986740055041295,0.7528146109582188,0.5005493834696618,0.49421664893524253,0.5004883408619216,0
0.4952476238119059,0.4901175881911435,0.7530647985989494,0.5005947294068402,0.49417130299806405,0.5004883408619216,0
0.4952476238119059,0.48986740055041295,0.7528146109582188,0.500610426077402,0.49420095226468075,0.5005040375324834,0
0.49549774887443715,0.48986740055041295,0.7528146109582188,0.5006418194185256,0.49420095226468075,0.5004726441913598,0
0.4952476238119059,0.490367775831874,0.7533149862396799,0.5005807768107854,0.49423234560580426,0.5004272982541814,0
0.4967483741870935,0.49261946459844896,0.7530647985989494,0.500610426077402,0.49429164413903764,0.5000906918743568,0
0.49424712356178085,0.48886664998749074,0.7523142356767576,0.500610426077402,0.49446081936620334,0.4948567242792612,0
0.49424712356178085,0.48936702526895187,0.7528146109582188,0.500687165355704,0.49423234560580426,0.5004429949247432,0
0.49499749874937465,0.48811608706529913,0.7530647985989494,0.5006418194185256,0.49421664893524253,0.5003348623053177,0
0.4952476238119059,0.48986740055041295,0.7525644233174882,0.5006557720145804,0.49423234560580426,0.5005197342030452,0
0.49549774887443715,0.48986740055041295,0.7523142356767576,0.5005947294068402,0.49415560632750233,0.5005040375324834,0
0.4952476238119059,0.48986740055041295,0.7528146109582188,0.5006714686851422,0.49424629820185917,0.5004569475207981,0
0.49499749874937465,0.48986740055041295,0.7530647985989494,0.500610426077402,0.49412421298637876,0.5004116015836196,0
0.4952476238119059,0.4901175881911435,0.7525644233174882,0.5007482079634442,0.49430734080959937,0.5004272982541814,0
0.49549774887443715,0.48986740055041295,0.7528146109582188,0.500610426077402,0.49420095226468075,0.5003505589758794,0
0.49549774887443715,0.49086815111333515,0.7530647985989494,0.500610426077402,0.49418525559411897,0.5000906918743568,0
0.4952476238119059,0.490367775831874,0.7530647985989494,0.5006714686851422,0.49426199487242095,0.4998168721767794,0
0.49549774887443715,0.4901175881911435,0.7528146109582188,0.500687165355704,0.49417130299806405,0.500992378394405,0
0.49474737368684335,0.4891168376282213,0.7528146109582188,0.500687165355704,0.49423234560580426,0.5018155815616443,0
0.4952476238119059,0.4896172129096824,0.7528146109582188,0.5005650801402236,0.49415560632750233,0.5006418194185256,0
0.4952476238119059,0.48986740055041295,0.7530647985989494,0.500687165355704,0.49415560632750233,0.5005197342030452,0
0.4952476238119059,0.48986740055041295,0.7525644233174882,0.5005947294068402,0.49418525559411897,0.5005197342030452,0
0.4952476238119059,0.4896172129096824,0.7530647985989494,0.5006418194185256,0.49418525559411897,0.5005807768107854,0
0.4952476238119059,0.48986740055041295,0.7530647985989494,0.500687165355704,0.49415560632750233,0.5004569475207981,0
0.4952476238119059,0.4901175881911435,0.7528146109582188,0.5007028620262658,0.49424629820185917,0.5005197342030452,0
0.4952476238119059,0.4901175881911435,0.7530647985989494,0.5006418194185256,0.49421664893524253,0.5004726441913598,0
0.4952476238119059,0.4901175881911435,0.7528146109582188,0.5007482079634442,0.49421664893524253,0.5004883408619216,0
0.4952476238119059,0.4901175881911435,0.7530647985989494,0.5006418194185256,0.49420095226468075,0.5004569475207981,0
0.4952476238119059,0.4901175881911435,0.7528146109582188,0.5005807768107854,0.49417130299806405,0.5005197342030452,0
0.49549774887443715,0.4901175881911435,0.7530647985989494,0.5006714686851422,0.49418525559411897,0.5005040375324834,0
0.4952476238119059,0.4901175881911435,0.7530647985989494,0.500687165355704,0.49423234560580426,0.500381952317003,0
0.4952476238119059,0.48986740055041295,0.7528146109582188,0.5007168146223206,0.49418525559411897,0.500381952317003,0
0.4952476238119059,0.48986740055041295,0.7530647985989494,0.5007028620262658,0.49420095226468075,0.5004429949247432,0
0.4952476238119059,0.48986740055041295,0.7525644233174882,0.5006557720145804,0.49418525559411897,0.5003976489875648,0
0.49549774887443715,0.4901175881911435,0.7530647985989494,0.5006714686851422,0.49426199487242095,0.5004272982541814,0
0.4952476238119059,0.48986740055041295,0.7528146109582188,0.500610426077402,0.49418525559411897,0.500381952317003,0
0.4952476238119059,0.48986740055041295,0.7528146109582188,0.5006714686851422,0.49423234560580426,0.5004569475207981,0
0.49549774887443715,0.4901175881911435,0.7530647985989494,0.5005807768107854,0.49421664893524253,0.5004726441913598,0
0.4952476238119059,0.48986740055041295,0.7528146109582188,0.5006557720145804,0.49410851631581704,0.5005040375324834,0
0.4952476238119059,0.48986740055041295,0.7530647985989494,0.5005650801402236,0.49421664893524253,0.5004726441913598,0
0.4952476238119059,0.48986740055041295,0.7528146109582188,0.5006261227479638,0.49420095226468075,0.5005493834696618,0
0.4952476238119059,0.4901175881911435,0.7525644233174882,0.5005947294068402,0.49415560632750233,0.5004726441913598,0
0.49549774887443715,0.48986740055041295,0.7525644233174882,0.5005947294068402,0.49423234560580426,0.5005040375324834,0
0.49549774887443715,0.4901175881911435,0.7528146109582188,0.5007778572300609,0.49418525559411897,0.5005493834696618,0
0.4952476238119059,0.48986740055041295,0.7533149862396799,0.5005947294068402,0.49420095226468075,0.5004726441913598,0
0.4952476238119059,0.4901175881911435,0.7528146109582188,0.5005807768107854,0.49423234560580426,0.5005040375324834,0
0.4952476238119059,0.490367775831874,0.7530647985989494,0.500610426077402,0.49421664893524253,0.5004883408619216,0
0.49624812406203095,0.4928696522391795,0.7528146109582188,0.5006418194185256,0.49415560632750233,0.4999686066588765,0
0.49649824912456225,0.49086815111333515,0.7535651738804104,0.5006714686851422,0.49439977675846314,0.5005197342030452,0
0.4952476238119059,0.487615711783838,0.7528146109582188,0.5005493834696618,0.49424629820185917,0.4996023510124353,0
0.49574787393696845,0.49311983987991004,0.7530647985989494,0.5006261227479638,0.49418525559411897,0.49888553639011457,0
0.49549774887443715,0.4851138353765325,0.7525644233174882,0.500381952317003,0.49429164413903764,0.49884019045293615,0
0.49499749874937465,0.4896172129096824,0.7528146109582188,0.5005807768107854,0.49412421298637876,0.5014039799780247,0
0.4952476238119059,0.48986740055041295,0.7525644233174882,0.5006557720145804,0.49420095226468075,0.5005650801402236,0
0.49549774887443715,0.4901175881911435,0.7528146109582188,0.5006261227479638,0.49420095226468075,0.5005493834696618,0
0.4952476238119059,0.48986740055041295,0.7528146109582188,0.5005493834696618,0.49420095226468075,0.5005040375324834,0
0.4952476238119059,0.48986740055041295,0.7528146109582188,0.500610426077402,0.49415560632750233,0.5005197342030452,0
0.4952476238119059,0.4901175881911435,0.7530647985989494,0.5006418194185256,0.49421664893524253,0.5005197342030452,0
0.49549774887443715,0.4901175881911435,0.7530647985989494,0.5005947294068402,0.49424629820185917,0.5005650801402236,0
0.49549774887443715,0.48986740055041295,0.7530647985989494,0.5006557720145804,0.49421664893524253,0.5005336867991,0
0.49549774887443715,0.48986740055041295,0.7525644233174882,0.5007482079634442,0.49413990965694055,0.5004883408619216,0
0.4952476238119059,0.4901175881911435,0.7533149862396799,0.500687165355704,0.49423234560580426,0.5004883408619216,0
0.4952476238119059,0.48986740055041295,0.7528146109582188,0.5006418194185256,0.49413990965694055,0.5005650801402236,0
0.4952476238119059,0.4896172129096824,0.7530647985989494,0.5005807768107854,0.49418525559411897,0.5005493834696618,0
0.49549774887443715,0.48986740055041295,0.7528146109582188,0.5006557720145804,0.49421664893524253,0.5005040375324834,0
0.49499749874937465,0.4901175881911435,0.7528146109582188,0.5005493834696618,0.49417130299806405,0.5005493834696618,0
0.4952476238119059,0.4896172129096824,0.7528146109582188,0.5006261227479638,0.49424629820185917,0.5005336867991,0
0.49549774887443715,0.4901175881911435,0.7525644233174882,0.5007028620262658,0.49423234560580426,0.5005197342030452,0
0.4952476238119059,0.48986740055041295,0.7525644233174882,0.5005493834696618,0.49423234560580426,0.5005336867991,0
0.49549774887443715,0.48986740055041295,0.7528146109582188,0.500687165355704,0.49415560632750233,0.5004429949247432,0
0.49549774887443715,0.48986740055041295,0.7528146109582188,0.5006261227479638,0.49426199487242095,0.5005040375324834,0
0.4952476238119059,0.48986740055041295,0.7528146109582188,0.5006714686851422,0.49418525559411897,0.5004883408619216,0
0.49549774887443715,0.4901175881911435,0.7528146109582188,0.5005807768107854,0.49417130299806405,0.5004429949247432,0
0.49499749874937465,0.4901175881911435,0.7533149862396799,0.5006557720145804,0.49421664893524253,0.5004429949247432,0
0.49549774887443715,0.48986740055041295,0.7525644233174882,0.500610426077402,0.49420095226468075,0.5004883408619216,0
0.49549774887443715,0.48986740055041295,0.7528146109582188,0.5006557720145804,0.49415560632750233,0.5005336867991,0
0.4952476238119059,0.48986740055041295,0.7530647985989494,0.5006418194185256,0.49420095226468075,0.5005040375324834,0
0.4952476238119059,0.48986740055041295,0.7525644233174882,0.5006418194185256,0.49415560632750233,0.5005336867991,0
0.49549774887443715,0.48986740055041295,0.7530647985989494,0.5006261227479638,0.49420095226468075,0.5005336867991,0
0.49549774887443715,0.48986740055041295,0.7525644233174882,0.500610426077402,0.49417130299806405,0.5004726441913598,0
0.4952476238119059,0.48986740055041295,0.7528146109582188,0.5005807768107854,0.49423234560580426,0.5005336867991,0
0.4952476238119059,0.48986740055041295,0.7530647985989494,0.500610426077402,0.49418525559411897,0.5005650801402236,0
0.4952476238119059,0.48986740055041295,0.7528146109582188,0.5007028620262658,0.49415560632750233,0.5004883408619216,0
0.49499749874937465,0.4901175881911435,0.7528146109582188,0.5006557720145804,0.49418525559411897,0.5004883408619216,0
0.4952476238119059,0.490367775831874,0.7525644233174882,0.5005336867991,0.49417130299806405,0.5005807768107854,0
0.49474737368684335,0.4901175881911435,0.7530647985989494,0.500687165355704,0.49418525559411897,0.5005493834696618,0
0.4952476238119059,0.48986740055041295,0.7528146109582188,0.5006557720145804,0.49424629820185917,0.5005493834696618,0
0.4952476238119059,0.48986740055041295,0.7528146109582188,0.5007168146223206,0.49420095226468075,0.5003976489875648,0
0.4952476238119059,0.4901175881911435,0.7530647985989494,0.500610426077402,0.49415560632750233,0.5005493834696618,0
0.4952476238119059,0.48986740055041295,0.7530647985989494,0.500687165355704,0.49423234560580426,0.5005040375324834,0
0.4952476238119059,0.48986740055041295,0.7525644233174882,0.5006418194185256,0.49423234560580426,0.5005197342030452,0
0.49499749874937465,0.4901175881911435,0.7528146109582188,0.500763904634006,0.49412421298637876,0.5005650801402236,0
0.49549774887443715,0.4901175881911435,0.7530647985989494,0.500610426077402,0.49423234560580426,0.5005197342030452,0
0.49574787393696845,0.4901175881911435,0.7530647985989494,0.5007028620262658,0.49421664893524253,0.5005807768107854,0
0.49549774887443715,0.48986740055041295,0.7525644233174882,0.500687165355704,0.49412421298637876,0.5006418194185256,0
0.49549774887443715,0.48986740055041295,0.7530647985989494,0.5005947294068402,0.49420095226468075,0.5005197342030452,0
0.4952476238119059,0.4901175881911435,0.7528146109582188,0.5006418194185256,0.49417130299806405,0.5005650801402236,0
0.4952476238119059,0.48986740055041295,0.7530647985989494,0.5006261227479638,0.49415560632750233,0.5006418194185256,0
0.49549774887443715,0.4896172129096824,0.7528146109582188,0.500610426077402,0.49426199487242095,0.5005650801402236,0
0.4952476238119059,0.4901175881911435,0.7530647985989494,0.5006261227479638,0.4940945637197621,0.5005807768107854,0
0.4952476238119059,0.4901175881911435,0.7530647985989494,0.5006714686851422,0.49415560632750233,0.5005197342030452,0
0.4952476238119059,0.48986740055041295,0.7530647985989494,0.500610426077402,0.49420095226468075,0.5004429949247432,0
0.49549774887443715,0.48986740055041295,0.7525644233174882,0.5007028620262658,0.49424629820185917,0.5005040375324834,0
0.49549774887443715,0.4901175881911435,0.7530647985989494,0.5006557720145804,0.49420095226468075,0.5004726441913598,0
0.4952476238119059,0.48986740055041295,0.7530647985989494,0.5005807768107854,0.49420095226468075,0.5005650801402236,0
0.4952476238119059,0.48986740055041295,0.7530647985989494,0.5005807768107854,0.49415560632750233,0.5006261227479638,0
0.4952476238119059,0.48986740055041295,0.7525644233174882,0.500610426077402,0.49423234560580426,0.5004726441913598,0
0.49499749874937465,0.4901175881911435,0.7530647985989494,0.5005650801402236,0.49410851631581704,0.5004726441913598,0
0.4952476238119059,0.48986740055041295,0.7530647985989494,0.500610426077402,0.49415560632750233,0.5004272982541814,0
0.4952476238119059,0.48986740055041295,0.7528146109582188,0.5005807768107854,0.49413990965694055,0.5004726441913598,0
0.4952476238119059,0.48986740055041295,0.7530647985989494,0.5005197342030452,0.49418525559411897,0.5004569475207981,0
0.4952476238119059,0.4901175881911435,0.7530647985989494,0.5006261227479638,0.49420095226468075,0.5005040375324834,0
0.49549774887443715,0.48986740055041295,0.7530647985989494,0.500610426077402,0.49418525559411897,0.5004726441913598,0
0.49549774887443715,0.48986740055041295,0.7530647985989494,0.5007168146223206,0.49417130299806405,0.5005040375324834,0
0.4929964982491245,0.4891168376282213,0.7525644233174882,0.5006557720145804,0.49421664893524253,0.5013586340408462,0
0.4952476238119059,0.48986740055041295,0.7530647985989494,0.5005650801402236,0.49415560632750233,0.5000453459371784,0
0.49549774887443715,0.4901175881911435,0.7525644233174882,0.500610426077402,0.49421664893524253,0.4999843033294382,0
0.49624812406203095,0.48986740055041295,0.7535651738804104,0.5005336867991,0.49427769154298273,0.5003209097092628,0
0.49574787393696845,0.4911183387540657,0.7528146109582188,0.5005807768107854,0.49413990965694055,0.5002738196975774,0
0.49324662331165575,0.4886164623467602,0.7528146109582188,0.5006261227479638,0.49418525559411897,0.5005807768107854,0
0.4952476238119059,0.4886164623467602,0.7525644233174882,0.5006418194185256,0.49417130299806405,0.5001220852154804,0
0.49549774887443715,0.4896172129096824,0.7528146109582188,0.500687165355704,0.49423234560580426,0.500381952317003,0
0.4952476238119059,0.4901175881911435,0.7530647985989494,0.5006418194185256,0.49420095226468075,0.500381952317003,0
0.4952476238119059,0.490367775831874,0.7528146109582188,0.5006557720145804,0.49423234560580426,0.5001674311526588,0
0.4952476238119059,0.49086815111333515,0.7530647985989494,0.5006557720145804,0.49415560632750233,0.4994349198597764,0
0.4952476238119059,0.48986740055041295,0.7530647985989494,0.5007325112928824,0.49420095226468075,0.49897797233897834,0
0.4952476238119059,0.4921190893169879,0.7530647985989494,0.5006714686851422,0.49412421298637876,0.49914540349163716,0
0.49499749874937465,0.48786589942456854,0.7525644233174882,0.5006418194185256,0.49412421298637876,0.49977152623960097,0
0.4952476238119059,0.4896172129096824,0.7530647985989494,0.5006714686851422,0.49417130299806405,0.5004569475207981,0
0.4952476238119059,0.48986740055041295,0.7528146109582188,0.5006261227479638,0.49413990965694055,0.5005040375324834,0
0.4952476238119059,0.48986740055041295,0.7530647985989494,0.5006557720145804,0.49418525559411897,0.5005197342030452,0
0.49499749874937465,0.48986740055041295,0.7528146109582188,0.5006418194185256,0.49413990965694055,0.5005336867991,0
0.49549774887443715,0.4901175881911435,0.7530647985989494,0.5005040375324834,0.49418525559411897,0.5005650801402236,0
0.4952476238119059,0.48986740055041295,0.7530647985989494,0.500610426077402,0.49418525559411897,0.5004429949247432,0
0.4952476238119059,0.48986740055041295,0.7530647985989494,0.5006557720145804,0.49412421298637876,0.5005336867991,0
0.49499749874937465,0.4901175881911435,0.7525644233174882,0.5006261227479638,0.49420095226468075,0.5004883408619216,0
0.4952476238119059,0.48986740055041295,0.7530647985989494,0.5005947294068402,0.49420095226468075,0.5005807768107854,0
0.4952476238119059,0.4896172129096824,0.7530647985989494,0.5006261227479638,0.49421664893524253,0.5004569475207981,0
0.4952476238119059,0.4901175881911435,0.7528146109582188,0.5005807768107854,0.49412421298637876,0.5004883408619216,0
0.4952476238119059,0.48986740055041295,0.7525644233174882,0.5006418194185256,0.49417130299806405,0.5005650801402236,0
0.4952476238119059,0.4901175881911435,0.7528146109582188,0.500610426077402,0.49421664893524253,0.5005040375324834,0
0.49549774887443715,0.48986740055041295,0.7528146109582188,0.500610426077402,0.49420095226468075,0.5005197342030452,0
0.4952476238119059,0.48986740055041295,0.7528146109582188,0.5006261227479638,0.49413990965694055,0.5004883408619216,0
0.49549774887443715,0.4901175881911435,0.7525644233174882,0.5006557720145804,0.49418525559411897,0.5005040375324834,0
0.4952476238119059,0.48986740055041295,0.7528146109582188,0.5006261227479638,0.49417130299806405,0.5005040375324834,0
0.49549774887443715,0.48986740055041295,0.7528146109582188,0.5006714686851422,0.49420095226468075,0.5005040375324834,0
0.4952476238119059,0.4896172129096824,0.7530647985989494,0.5006557720145804,0.49415560632750233,0.5005650801402236,0
0.4952476238119059,0.48986740055041295,0.7523142356767576,0.500610426077402,0.49412421298637876,0.5005040375324834,0
0.4952476238119059,0.48986740055041295,0.7533149862396799,0.5006418194185256,0.49418525559411897,0.5004883408619216,0
0.4952476238119059,0.48986740055041295,0.7525644233174882,0.5006261227479638,0.49418525559411897,0.5005807768107854,0
0.4952476238119059,0.48986740055041295,0.7533149862396799,0.500687165355704,0.49418525559411897,0.5005040375324834,0
0.4952476238119059,0.4901175881911435,0.7528146109582188,0.500610426077402,0.49417130299806405,0.5004726441913598,0
0.4952476238119059,0.48986740055041295,0.7528146109582188,0.5006261227479638,0.49418525559411897,0.5005336867991,0
0.49549774887443715,0.4896172129096824,0.7528146109582188,0.5006714686851422,0.49413990965694055,0.5004883408619216,0
0.4952476238119059,0.4901175881911435,0.7528146109582188,0.5006418194185256,0.49421664893524253,0.5005040375324834,0
0.49549774887443715,0.48986740055041295,0.7528146109582188,0.5006714686851422,0.49426199487242095,0.5005807768107854,0
0.4952476238119059,0.4896172129096824,0.7528146109582188,0.500687165355704,0.49418525559411897,0.5004429949247432,0
0.4952476238119059,0.4901175881911435,0.7528146109582188,0.5006261227479638,0.49421664893524253,0.5005336867991,0
0.49499749874937465,0.48986740055041295,0.7530647985989494,0.5006714686851422,0.49415560632750233,0.5005197342030452,0
0.49549774887443715,0.4901175881911435,0.7525644233174882,0.5006714686851422,0.49413990965694055,0.5006261227479638,0
0.49499749874937465,0.48986740055041295,0.7528146109582188,0.5005807768107854,0.49418525559411897,0.5005493834696618,0
0.4952476238119059,0.48986740055041295,0.7528146109582188,0.5006557720145804,0.49415560632750233,0.5004883408619216,0
0.4952476238119059,0.4901175881911435,0.7530647985989494,0.5006714686851422,0.49415560632750233,0.5005040375324834,0
0.49549774887443715,0.48986740055041295,0.7528146109582188,0.5005650801402236,0.49421664893524253,0.5005197342030452,0
0.49549774887443715,0.48986740055041295,0.7528146109582188,0.5005197342030452,0.49413990965694055,0.5004726441913598,0
0.4952476238119059,0.48986740055041295,0.7528146109582188,0.500687165355704,0.49417130299806405,0.5005197342030452,0
0.49499749874937465,0.48986740055041295,0.7533149862396799,0.5006418194185256,0.49415560632750233,0.5004726441913598,0
0.4952476238119059,0.48986740055041295,0.7528146109582188,0.5006557720145804,0.49421664893524253,0.5005197342030452,0
0.4952476238119059,0.48986740055041295,0.7525644233174882,0.5006418194185256,0.49421664893524253,0.5004883408619216,0
0.4952476238119059,0.48986740055041295,0.7530647985989494,0.5006418194185256,0.49415560632750233,0.5005197342030452,0
0.4952476238119059,0.4901175881911435,0.7528146109582188,0.5007028620262658,0.49420095226468075,0.5004116015836196,0
0.49549774887443715,0.4901175881911435,0.7525644233174882,0.5007168146223206,0.49413990965694055,0.5005493834696618,0
0.4952476238119059,0.48986740055041295,0.7530647985989494,0.5006261227479638,0.49418525559411897,0.5005040375324834,0
0.4952476238119059,0.4901175881911435,0.7530647985989494,0.5006261227479638,0.49418525559411897,0.5005197342030452,0
0.4952476238119059,0.48986740055041295,0.7530647985989494,0.5006418194185256,0.49417130299806405,0.5005336867991,0
0.49549774887443715,0.48986740055041295,0.7533149862396799,0.5006261227479638,0.49418525559411897,0.5005650801402236,0
0.49549774887443715,0.48986740055041295,0.7528146109582188,0.5005807768107854,0.49415560632750233,0.5005336867991,0
0.49549774887443715,0.48986740055041295,0.7530647985989494,0.500687165355704,0.49420095226468075,0.5005197342030452,0
0.49549774887443715,0.48986740055041295,0.7528146109582188,0.5005807768107854,0.49415560632750233,0.5005493834696618,0
0.4952476238119059,0.48986740055041295,0.7528146109582188,0.5005336867991,0.49417130299806405,0.5004569475207981,0
0.49549774887443715,0.48986740055041295,0.7530647985989494,0.5007028620262658,0.49418525559411897,0.5005336867991,0
0.4952476238119059,0.4896172129096824,0.7528146109582188,0.5006261227479638,0.49421664893524253,0.5005493834696618,0
0.4952476238119059,0.48986740055041295,0.7528146109582188,0.5006261227479638,0.49421664893524253,0.5005197342030452,0
0.49549774887443715,0.48986740055041295,0.7530647985989494,0.5005807768107854,0.49421664893524253,0.5005807768107854,0
0.49549774887443715,0.4896172129096824,0.7528146109582188,0.5006261227479638,0.49420095226468075,0.5005336867991,0
0.4952476238119059,0.48986740055041295,0.7528146109582188,0.500687165355704,0.49415560632750233,0.5005197342030452,0
0.4952476238119059,0.48986740055041295,0.7530647985989494,0.500610426077402,0.49417130299806405,0.5005040375324834,0
0.4952476238119059,0.4901175881911435,0.7530647985989494,0.5006418194185256,0.49421664893524253,0.5004569475207981,0
0.49549774887443715,0.48986740055041295,0.7528146109582188,0.5005336867991,0.4940945637197621,0.5005197342030452,0
0.49574787393696845,0.48986740055041295,0.7530647985989494,0.500687165355704,0.49424629820185917,0.5004883408619216,0
0.4952476238119059,0.48986740055041295,0.7528146109582188,0.5005493834696618,0.49418525559411897,0.5004883408619216,0
0.4952476238119059,0.4901175881911435,0.7528146109582188,0.500687165355704,0.49415560632750233,0.5005650801402236,0
0.4952476238119059,0.4901175881911435,0.7528146109582188,0.5006714686851422,0.49415560632750233,0.5005197342030452,0
0.4952476238119059,0.4896172129096824,0.7528146109582188,0.5006557720145804,0.49421664893524253,0.5005040375324834,0
0.49549774887443715,0.4901175881911435,0.7528146109582188,0.5006714686851422,0.49420095226468075,0.5004726441913598,0
0.49499749874937465,0.4901175881911435,0.7530647985989494,0.5006418194185256,0.49423234560580426,0.5005650801402236,0
0.4952476238119059,0.48986740055041295,0.7528146109582188,0.500687165355704,0.49423234560580426,0.5004883408619216,0
0.4952476238119059,0.48986740055041295,0.7528146109582188,0.5006261227479638,0.49420095226468075,0.5005650801402236,0
0.4952476238119059,0.48986740055041295,0.7528146109582188,0.500687165355704,0.49418525559411897,0.5004569475207981,0
0.4952476238119059,0.48986740055041295,0.7528146109582188,0.500610426077402,0.49415560632750233,0.5004569475207981,0
0.49549774887443715,0.48986740055041295,0.7530647985989494,0.5005807768107854,0.49417130299806405,0.5005040375324834,0
0.4952476238119059,0.48986740055041295,0.7525644233174882,0.5006261227479638,0.49415560632750233,0.5005493834696618,0
0.4952476238119059,0.48986740055041295,0.7528146109582188,0.5006261227479638,0.49418525559411897,0.5005040375324834,0
0.4952476238119059,0.48986740055041295,0.7528146109582188,0.5006714686851422,0.49424629820185917,0.5005040375324834,0
0.4952476238119059,0.48986740055041295,0.7528146109582188,0.5005650801402236,0.49420095226468075,0.5005650801402236,0
0.49549774887443715,0.48986740055041295,0.7528146109582188,0.5005947294068402,0.49417130299806405,0.5005197342030452,0
0.49549774887443715,0.48986740055041295,0.7530647985989494,0.5006261227479638,0.49420095226468075,0.5005807768107854,0
0.4952476238119059,0.48986740055041295,0.7528146109582188,0.5005947294068402,0.49420095226468075,0.5005336867991,0
0.4952476238119059,0.4896172129096824,0.7530647985989494,0.500687165355704,0.49418525559411897,0.5004883408619216,0
0.4952476238119059,0.48986740055041295,0.7525644233174882,0.5005807768107854,0.49420095226468075,0.5004883408619216,0
0.4952476238119059,0.48986740055041295,0.7525644233174882,0.5005947294068402,0.49413990965694055,0.5004569475207981,0
0.49549774887443715,0.4901175881911435,0.7528146109582188,0.5006261227479638,0.49410851631581704,0.5005336867991,0
0.49549774887443715,0.48986740055041295,0.7528146109582188,0.5006418194185256,0.49420095226468075,0.5005040375324834,0
0.49549774887443715,0.48986740055041295,0.7525644233174882,0.500610426077402,0.49418525559411897,0.5005650801402236,0
0.4952476238119059,0.4901175881911435,0.7530647985989494,0.5005947294068402,0.49418525559411897,0.5005650801402236,0
0.4952476238119059,0.48986740055041295,0.7530647985989494,0.5005947294068402,0.49415560632750233,0.5005493834696618,0
0.4952476238119059,0.4901175881911435,0.7528146109582188,0.5006261227479638,0.49418525559411897,0.5005197342030452,0
0.4952476238119059,0.48986740055041295,0.7528146109582188,0.5006714686851422,0.49420095226468075,0.5004429949247432,0
0.49549774887443715,0.48986740055041295,0.7528146109582188,0.5006261227479638,0.49421664893524253,0.5005807768107854,0
0.4952476238119059,0.4901175881911435,0.7525644233174882,0.5007482079634442,0.49423234560580426,0.5005197342030452,0
0.4952476238119059,0.48986740055041295,0.7528146109582188,0.5006714686851422,0.49420095226468075,0.5005040375324834,0
0.4952476238119059,0.48986740055041295,0.7525644233174882,0.500687165355704,0.49417130299806405,0.5005197342030452,0
0.4952476238119059,0.48986740055041295,0.7528146109582188,0.500610426077402,0.49420095226468075,0.5004429949247432,0
0.49549774887443715,0.48986740055041295,0.7530647985989494,0.5007325112928824,0.49423234560580426,0.5004883408619216,0
0.4952476238119059,0.48986740055041295,0.7528146109582188,0.5005197342030452,0.49421664893524253,0.5004726441913598,0
0.49549774887443715,0.4896172129096824,0.7528146109582188,0.5007028620262658,0.49421664893524253,0.5005493834696618,0
0.4952476238119059,0.48986740055041295,0.7528146109582188,0.500610426077402,0.49424629820185917,0.5004726441913598,0
0.4952476238119059,0.48986740055041295,0.7530647985989494,0.5006557720145804,0.49426199487242095,0.5005336867991,0
0.49549774887443715,0.4901175881911435,0.7530647985989494,0.5006557720145804,0.49420095226468075,0.5004883408619216,0
0.4952476238119059,0.48986740055041295,0.7530647985989494,0.5006714686851422,0.49421664893524253,0.5005336867991,0
0.4952476238119059,0.48986740055041295,0.7525644233174882,0.5006418194185256,0.49418525559411897,0.5004726441913598,0
0.4952476238119059,0.4901175881911435,0.7525644233174882,0.5006261227479638,0.49417130299806405,0.5004726441913598,0
0.4952476238119059,0.4896172129096824,0.7530647985989494,0.5005947294068402,0.49418525559411897,0.5005197342030452,0
0.49549774887443715,0.48986740055041295,0.7528146109582188,0.500610426077402,0.49423234560580426,0.5005807768107854,0
0.49549774887443715,0.48986740055041295,0.7528146109582188,0.5007028620262658,0.49421664893524253,0.5005650801402236,0
0.4952476238119059,0.48986740055041295,0.7528146109582188,0.500610426077402,0.49420095226468075,0.5004116015836196,0
0.49499749874937465,0.48986740055041295,0.7530647985989494,0.5006418194185256,0.49415560632750233,0.5005040375324834,0
0.4952476238119059,0.48986740055041295,0.7528146109582188,0.500610426077402,0.49426199487242095,0.5005040375324834,0
0.49549774887443715,0.4901175881911435,0.7523142356767576,0.5006418194185256,0.49417130299806405,0.5004726441913598,0
0.49499749874937465,0.4896172129096824,0.7530647985989494,0.5005947294068402,0.49415560632750233,0.5005493834696618,0
0.49499749874937465,0.48936702526895187,0.7533149862396799,0.5005650801402236,0.49415560632750233,0.500610426077402,0
0.4952476238119059,0.4896172129096824,0.7528146109582188,0.5005947294068402,0.49417130299806405,0.5005650801402236,0
0.49549774887443715,0.48986740055041295,0.7525644233174882,0.500687165355704,0.49418525559411897,0.5005807768107854,0
0.4952476238119059,0.48986740055041295,0.7525644233174882,0.5006714686851422,0.49420095226468075,0.5005040375324834,0
0.4952476238119059,0.4901175881911435,0.7530647985989494,0.5006418194185256,0.49418525559411897,0.5005650801402236,0
0.49499749874937465,0.4896172129096824,0.7528146109582188,0.5005947294068402,0.49418525559411897,0.5006261227479638,0
0.49549774887443715,0.48986740055041295,0.7528146109582188,0.5006261227479638,0.49424629820185917,0.5004726441913598,0
0.4952476238119059,0.4896172129096824,0.7528146109582188,0.5006557720145804,0.49417130299806405,0.5005336867991,0
0.49549774887443715,0.48986740055041295,0.7525644233174882,0.5005947294068402,0.49413990965694055,0.5005197342030452,0
0.4952476238119059,0.48986740055041295,0.7525644233174882,0.5006418194185256,0.49417130299806405,0.5005493834696618,0
0.49499749874937465,0.48986740055041295,0.7530647985989494,0.5006557720145804,0.49426199487242095,0.5005947294068402,0
0.49574787393696845,0.48986740055041295,0.7528146109582188,0.5006557720145804,0.49423234560580426,0.5004726441913598,0
0.4952476238119059,0.4901175881911435,0.7528146109582188,0.5005947294068402,0.49415560632750233,0.5005040375324834,0
0.4952476238119059,0.48986740055041295,0.7528146109582188,0.5005947294068402,0.49421664893524253,0.5004272982541814,0
0.49499749874937465,0.48986740055041295,0.7528146109582188,0.500687165355704,0.49420095226468075,0.5005336867991,0
0.4952476238119059,0.48986740055041295,0.7528146109582188,0.5007325112928824,0.49418525559411897,0.5005197342030452,0
0.49549774887443715,0.48986740055041295,0.7528146109582188,0.500687165355704,0.49424629820185917,0.5004726441913598,0
0.49549774887443715,0.48986740055041295,0.7530647985989494,0.5006418194185256,0.49423234560580426,0.5004429949247432,0
0.49549774887443715,0.4901175881911435,0.7528146109582188,0.5007168146223206,0.49420095226468075,0.5005336867991,0
0.4952476238119059,0.4901175881911435,0.7525644233174882,0.5006261227479638,0.49412421298637876,0.5005336867991,0
0.49499749874937465,0.48986740055041295,0.7528146109582188,0.500687165355704,0.49415560632750233,0.5004883408619216,0
0.49549774887443715,0.4901175881911435,0.7525644233174882,0.5006557720145804,0.49423234560580426,0.5004726441913598,0
0.4952476238119059,0.48986740055041295,0.7530647985989494,0.5006261227479638,0.49415560632750233,0.5005336867991,0
0.4952476238119059,0.48986740055041295,0.7523142356767576,0.5006261227479638,0.49418525559411897,0.5005040375324834,0
0.4952476238119059,0.48986740055041295,0.7528146109582188,0.5005807768107854,0.49417130299806405,0.5004569475207981,0
0.4952476238119059,0.48986740055041295,0.7525644233174882,0.5006557720145804,0.49420095226468075,0.5005197342030452,0
0.4952476238119059,0.48986740055041295,0.7530647985989494,0.5005807768107854,0.49418525559411897,0.5005040375324834,0
0.4952476238119059,0.4901175881911435,0.7525644233174882,0.5006261227479638,0.49423234560580426,0.5005336867991,0
0.49499749874937465,0.4896172129096824,0.7530647985989494,0.5006418194185256,0.49415560632750233,0.5005197342030452,0
0.4952476238119059,0.48986740055041295,0.7530647985989494,0.500687165355704,0.49417130299806405,0.5005493834696618,0
0.49549774887443715,0.48986740055041295,0.7523142356767576,0.5006557720145804,0.49421664893524253,0.5004726441913598,0
0.49549774887443715,0.48986740055041295,0.7528146109582188,0.5006557720145804,0.49415560632750233,0.5005197342030452,0
0.4952476238119059,0.4896172129096824,0.7530647985989494,0.5006261227479638,0.49413990965694055,0.5005040375324834,0
0.4952476238119059,0.48986740055041295,0.7528146109582188,0.5006714686851422,0.49418525559411897,0.5005336867991,0
0.4952476238119059,0.48986740055041295,0.7525644233174882,0.5007325112928824,0.49418525559411897,0.5004429949247432,0
0.49549774887443715,0.48986740055041295,0.7523142356767576,0.5006418194185256,0.49423234560580426,0.5004883408619216,0
0.49499749874937465,0.48986740055041295,0.7525644233174882,0.5006714686851422,0.49415560632750233,0.500610426077402,0
0.4952476238119059,0.4896172129096824,0.7528146109582188,0.5006261227479638,0.49420095226468075,0.5004429949247432,0
0.4952476238119059,0.48986740055041295,0.7525644233174882,0.5006714686851422,0.49421664893524253,0.5005197342030452,0
0.49549774887443715,0.48986740055041295,0.7530647985989494,0.5006418194185256,0.49426199487242095,0.5004726441913598,0
0.49549774887443715,0.48986740055041295,0.7525644233174882,0.5005947294068402,0.49418525559411897,0.5005493834696618,0
0.4952476238119059,0.48986740055041295,0.7530647985989494,0.5006261227479638,0.49418525559411897,0.500610426077402,0
0.49549774887443715,0.48986740055041295,0.7525644233174882,0.500610426077402,0.49420095226468075,0.5006261227479638,0
0.4952476238119059,0.48986740055041295,0.7528146109582188,0.5006714686851422,0.49427769154298273,0.5005336867991,0
0.4952476238119059,0.4896172129096824,0.7530647985989494,0.5007168146223206,0.49424629820185917,0.5005197342030452,0
0.49549774887443715,0.48986740055041295,0.7525644233174882,0.5005336867991,0.49424629820185917,0.5005197342030452,0
0.49549774887443715,0.48986740055041295,0.7528146109582188,0.5006261227479638,0.49421664893524253,0.5004726441913598,0
0.49549774887443715,0.48986740055041295,0.7525644233174882,0.500610426077402,0.49412421298637876,0.5005336867991,0
0.4952476238119059,0.48986740055041295,0.7528146109582188,0.500687165355704,0.49417130299806405,0.5004883408619216,0
0.4952476238119059,0.48986740055041295,0.7530647985989494,0.5006418194185256,0.49421664893524253,0.5005040375324834,0
0.4952476238119059,0.48986740055041295,0.7525644233174882,0.5006557720145804,0.49420095226468075,0.5005336867991,0
0.4952476238119059,0.4901175881911435,0.7530647985989494,0.5006557720145804,0.49417130299806405,0.5004883408619216,0
0.4952476238119059,0.4901175881911435,0.7528146109582188,0.5006261227479638,0.49415560632750233,0.5004726441913598,0
0.49549774887443715,0.48986740055041295,0.7530647985989494,0.500610426077402,0.49424629820185917,0.5005493834696618,0
0.49499749874937465,0.48986740055041295,0.7525644233174882,0.5006557720145804,0.49417130299806405,0.5005336867991,0
0.49549774887443715,0.4896172129096824,0.7525644233174882,0.5006557720145804,0.49418525559411897,0.5005947294068402,0
0.4952476238119059,0.4896172129096824,0.7528146109582188,0.500687165355704,0.49413990965694055,0.5004726441913598,0
0.4952476238119059,0.4896172129096824,0.7528146109582188,0.5006714686851422,0.49420095226468075,0.5004726441913598,0
0.49574787393696845,0.48986740055041295,0.7528146109582188,0.5005947294068402,0.49418525559411897,0.5005197342030452,0
0.4952476238119059,0.48986740055041295,0.7530647985989494,0.5007168146223206,0.49410851631581704,0.5004726441913598,0
0.49549774887443715,0.48986740055041295,0.7528146109582188,0.5006418194185256,0.49420095226468075,0.5005650801402236,0
0.4952476238119059,0.4896172129096824,0.7530647985989494,0.500610426077402,0.49415560632750233,0.5005040375324834,0
0.4952476238119059,0.48986740055041295,0.7523142356767576,0.5006261227479638,0.49412421298637876,0.5005197342030452,0
0.4952476238119059,0.4901175881911435,0.7528146109582188,0.500610426077402,0.49415560632750233,0.5005040375324834,0
0.4952476238119059,0.48986740055041295,0.7525644233174882,0.5006418194185256,0.49424629820185917,0.5005197342030452,0
0.4952476238119059,0.4901175881911435,0.7525644233174882,0.5006557720145804,0.49420095226468075,0.5004726441913598,0
0.49549774887443715,0.48986740055041295,0.7528146109582188,0.5007028620262658,0.49418525559411897,0.5005493834696618,0
0.4952476238119059,0.4901175881911435,0.7525644233174882,0.5006557720145804,0.49417130299806405,0.5005040375324834,0
0.49549774887443715,0.4896172129096824,0.7530647985989494,0.500687165355704,0.49415560632750233,0.5005493834696618,0
0.4952476238119059,0.48986740055041295,0.7528146109582188,0.5006418194185256,0.49415560632750233,0.5005197342030452,0
0.49549774887443715,0.48986740055041295,0.7530647985989494,0.5006418194185256,0.49424629820185917,0.5005493834696618,0
0.49549774887443715,0.48986740055041295,0.7528146109582188,0.5006557720145804,0.49418525559411897,0.5005493834696618,0
0.49549774887443715,0.4896172129096824,0.7528146109582188,0.5006418194185256,0.49418525559411897,0.5005650801402236,0
0.4952476238119059,0.48986740055041295,0.7528146109582188,0.5006418194185256,0.49423234560580426,0.5004726441913598,0
0.4952476238119059,0.4901175881911435,0.7523142356767576,0.5006261227479638,0.49420095226468075,0.5005336867991,0
0.49549774887443715,0.48986740055041295,0.7528146109582188,0.5006557720145804,0.49415560632750233,0.5004429949247432,0
0.4952476238119059,0.4896172129096824,0.7525644233174882,0.5006557720145804,0.49412421298637876,0.5005650801402236,0
0.4952476238119059,0.48986740055041295,0.7528146109582188,0.5007482079634442,0.49420095226468075,0.5005493834696618,0
0.49549774887443715,0.48986740055041295,0.7530647985989494,0.5006557720145804,0.49415560632750233,0.5004883408619216,0
0.49549774887443715,0.48986740055041295,0.7525644233174882,0.5006557720145804,0.49420095226468075,0.5005040375324834,0
0.4952476238119059,0.48986740055041295,0.7528146109582188,0.5006714686851422,0.49429164413903764,0.5005336867991,0
0.49549774887443715,0.48986740055041295,0.7530647985989494,0.500610426077402,0.49418525559411897,0.5005040375324834,0
0.49549774887443715,0.4901175881911435,0.7523142356767576,0.500687165355704,0.49413990965694055,0.5004883408619216,0
0.4952476238119059,0.48986740055041295,0.7528146109582188,0.5005650801402236,0.49420095226468075,0.5004883408619216,0
0.4952476238119059,0.4896172129096824,0.7525644233174882,0.5006418194185256,0.49410851631581704,0.5005040375324834,0
0.4952476238119059,0.48986740055041295,0.7528146109582188,0.5006418194185256,0.49420095226468075,0.5005650801402236,0
0.4952476238119059,0.48986740055041295,0.7525644233174882,0.5006714686851422,0.49413990965694055,0.5005040375324834,0
0.49549774887443715,0.4896172129096824,0.7525644233174882,0.5006418194185256,0.49417130299806405,0.5004569475207981,0
0.49499749874937465,0.48986740055041295,0.7525644233174882,0.5007168146223206,0.49417130299806405,0.5004883408619216,0
0.4952476238119059,0.48986740055041295,0.7528146109582188,0.5006714686851422,0.49420095226468075,0.5005336867991,0
0.4952476238119059,0.48986740055041295,0.7528146109582188,0.500610426077402,0.49423234560580426,0.5005807768107854,0
0.4952476238119059,0.48986740055041295,0.7528146109582188,0.500610426077402,0.49421664893524253,0.5005493834696618,0
0.49499749874937465,0.48986740055041295,0.7528146109582188,0.5006261227479638,0.49415560632750233,0.5005197342030452,0
0.4952476238119059,0.48986740055041295,0.7528146109582188,0.5005947294068402,0.49424629820185917,0.5005197342030452,0
0.4952476238119059,0.4896172129096824,0.7528146109582188,0.5006418194185256,0.49421664893524253,0.5005493834696618,0
0.4952476238119059,0.48986740055041295,0.7528146109582188,0.5005947294068402,0.49420095226468075,0.5004726441913598,0
0.4952476238119059,0.48986740055041295,0.7528146109582188,0.5005650801402236,0.49420095226468075,0.5005650801402236,0
0.4952476238119059,0.4896172129096824,0.7528146109582188,0.5006261227479638,0.49421664893524253,0.5004726441913598,0
0.49549774887443715,0.48986740055041295,0.7528146109582188,0.5006418194185256,0.49421664893524253,0.5004569475207981,0
